Participant;SESSION;TRIAL_ORDER;Block;No. of edges;Targets;Crossed;Correct_ans;Response time;TOTAL_SCORE
1;1;1;1;3;mixed;uncrossed;1;22,6450363;0,475
1;1;2;1;3;indirect;crossed;0;22,6788184;0,475
1;1;3;1;4;indirect;uncrossed;0;20,8486023;0,475
1;1;4;1;5;direct;uncrossed;1;22,6279824;0,475
1;1;5;1;4;indirect;crossed;1;21,4933192;0,475
1;1;6;1;4;mixed;uncrossed;0;22,2891558;0,475
1;1;7;1;5;mixed;uncrossed;0;22,5591406;0,475
1;1;8;1;4;mixed;crossed;0;14,7126393;0,475
1;1;9;1;5;indirect;uncrossed;0;22,4922862;0,475
1;1;10;1;5;direct;crossed;0;23,6468721;0,475
1;1;11;1;4;direct;uncrossed;1;14,8478592;0,475
1;1;12;1;4;direct;crossed;1;22,3056963;0,475
1;1;13;1;3;mixed;crossed;0;23,6455456;0,475
1;1;14;1;3;direct;uncrossed;1;9,9497984;0,475
1;1;15;1;3;indirect;uncrossed;1;6,6271886;0,475
1;1;16;1;3;direct;crossed;1;22,6967643;0,475
1;1;17;1;5;mixed;crossed;1;21,1025819;0,475
1;1;18;2;4;indirect;uncrossed;0;21,9841959;0,475
1;1;19;2;5;mixed;crossed;1;21,3223368;0,475
1;1;20;2;4;direct;crossed;1;13,8141532;0,475
1;1;21;2;4;direct;uncrossed;0;15,4756626;0,475
1;1;22;2;3;indirect;uncrossed;1;8,3402984;0,475
1;1;23;2;4;mixed;crossed;0;;0,475
1;1;24;2;3;indirect;crossed;0;21,2213745;0,475
1;1;25;2;4;indirect;crossed;1;21,0329671;0,475
1;1;26;2;5;mixed;uncrossed;1;17,2210073;0,475
1;1;27;2;3;mixed;uncrossed;1;15,9162989;0,475
1;1;28;2;5;direct;uncrossed;0;10,3563758;0,475
1;1;29;2;5;indirect;crossed;0;21,8143308;0,475
1;1;30;2;4;mixed;uncrossed;0;20,8992353;0,475
1;1;31;2;3;direct;uncrossed;0;12,374168;0,475
1;1;32;2;3;direct;crossed;1;21,8487787;0,475
1;1;33;2;5;direct;crossed;0;15,3061693;0,475
1;1;34;2;5;indirect;uncrossed;0;17,0173929;0,475
1;1;35;2;5;indirect;crossed;0;22,034648;0,475
1;1;36;2;3;mixed;crossed;0;21,7470089;0,475
1;1;37;3;5;direct;crossed;0;13,3905375;0,475
1;1;38;3;3;direct;crossed;1;11,0361156;0,475
1;1;39;3;3;mixed;uncrossed;1;18,8134534;0,475
1;1;40;3;3;indirect;uncrossed;1;6,510022;0,475
1;1;41;3;3;direct;uncrossed;1;9,1173648;0,475
1;1;42;3;5;direct;uncrossed;1;15,2396408;0,475
1;1;43;3;3;mixed;crossed;0;12,8639847;0,475
1;1;44;3;4;direct;crossed;1;23,7126611;0,475
1;1;45;3;5;mixed;uncrossed;1;20,644868;0,475
1;1;46;3;4;direct;uncrossed;1;13,1021803;0,475
1;1;47;3;5;mixed;crossed;0;22,830396;0,475
1;1;48;3;3;indirect;crossed;1;15,5436341;0,475
1;1;49;3;4;mixed;crossed;0;13,3735105;0,475
1;1;50;3;4;indirect;uncrossed;1;7,6111751;0,475
1;1;51;3;5;indirect;crossed;0;21,2041224;0,475
1;1;52;3;4;indirect;crossed;0;11,7973741;0,475
1;1;53;3;5;indirect;uncrossed;0;18,5941705;0,475
1;1;54;3;4;mixed;uncrossed;1;19,8823183;0,475
1;2;1;1;5;mixed;crossed;0;10,7806707;0,475
1;2;2;1;3;direct;uncrossed;1;8,6455558;0,475
1;2;3;1;4;indirect;uncrossed;1;16,7807406;0,475
1;2;4;1;4;mixed;uncrossed;1;8,7973699;0,475
1;2;5;1;3;mixed;uncrossed;1;4,8977969;0,475
1;2;6;1;4;direct;uncrossed;0;13,3736338;0,475
1;2;7;1;3;indirect;uncrossed;1;19,9172318;0,475
1;2;8;1;4;direct;crossed;0;;0,475
1;2;9;1;3;direct;crossed;0;8,0024291;0,475
1;2;10;1;5;direct;uncrossed;0;;0,475
1;2;11;1;3;mixed;crossed;0;17,119671;0,475
1;2;12;1;3;indirect;crossed;0;;0,475
1;2;13;1;5;mixed;uncrossed;1;23,0036157;0,475
1;2;14;1;4;mixed;crossed;0;17,3206841;0,475
1;2;15;1;4;indirect;crossed;0;18,5265127;0,475
1;2;16;1;5;indirect;uncrossed;0;;0,475
1;2;17;1;5;direct;crossed;0;11,5447051;0,475
1;2;18;2;3;mixed;uncrossed;1;12,3404031;0,475
1;2;19;2;4;mixed;uncrossed;0;13,164337;0,475
1;2;20;2;5;indirect;uncrossed;0;;0,475
1;2;21;2;5;mixed;crossed;0;;0,475
1;2;22;2;3;direct;crossed;1;7,0852685;0,475
1;2;23;2;5;indirect;crossed;0;5,3054432;0,475
1;2;24;2;5;direct;crossed;0;22,8484751;0,475
1;2;25;2;4;direct;crossed;1;21,6100086;0,475
1;2;26;2;4;indirect;crossed;0;17,898862;0,475
1;2;27;2;3;indirect;uncrossed;1;8,1715386;0,475
1;2;28;2;4;indirect;uncrossed;1;6,0681296;0,475
1;2;29;2;3;mixed;crossed;1;22,8128709;0,475
1;2;30;2;4;direct;uncrossed;1;10,6952935;0,475
1;2;31;2;5;direct;uncrossed;1;11,6805009;0,475
1;2;32;2;5;indirect;crossed;0;;0,475
1;2;33;2;5;mixed;uncrossed;1;21,7803067;0,475
1;2;34;2;3;indirect;crossed;1;22,2224014;0,475
1;2;35;2;3;direct;uncrossed;1;7,018296;0,475
1;2;36;2;4;mixed;crossed;0;;0,475
1;2;37;3;4;mixed;crossed;0;;0,475
1;2;38;3;4;indirect;crossed;1;12,9497334;0,475
1;2;39;3;4;mixed;uncrossed;0;9,5266105;0,475
1;2;40;3;5;mixed;crossed;0;21,8654566;0,475
1;2;41;3;3;mixed;crossed;0;19,6983261;0,475
1;2;42;3;3;indirect;crossed;0;22,3739814;0,475
1;2;43;3;4;direct;uncrossed;1;8,7272349;0,475
1;2;44;3;5;indirect;crossed;0;;0,475
1;2;45;3;5;direct;uncrossed;1;19,984617;0,475
1;2;46;3;3;indirect;uncrossed;1;7,7811694;0,475
1;2;47;3;3;direct;crossed;0;;0,475
1;2;48;3;5;direct;crossed;0;23,596165;0,475
1;2;49;3;4;indirect;uncrossed;0;;0,475
1;2;50;3;5;indirect;uncrossed;0;18,6964262;0,475
1;2;51;3;4;direct;crossed;0;11,8992561;0,475
1;2;52;3;5;mixed;uncrossed;0;20,9187869;0,475
1;2;53;3;3;direct;uncrossed;1;6,8176511;0,475
1;2;54;3;3;mixed;uncrossed;1;9,1197862;0,475
2;1;1;1;4;indirect;uncrossed;1;12,171043;0,389
2;1;2;1;5;direct;uncrossed;1;22,9900187;0,389
2;1;3;1;5;direct;crossed;0;22,61086;0,389
2;1;4;1;4;direct;crossed;0;;0,389
2;1;5;1;5;mixed;crossed;0;20,7337914;0,389
2;1;6;1;4;direct;uncrossed;0;15,6961867;0,389
2;1;7;1;3;mixed;crossed;0;17,3216923;0,389
2;1;8;1;3;direct;crossed;0;;0,389
2;1;9;1;3;indirect;uncrossed;0;15,0505411;0,389
2;1;10;1;3;indirect;crossed;0;22,9010656;0,389
2;1;11;1;5;mixed;uncrossed;1;23,7971737;0,389
2;1;12;1;4;mixed;crossed;0;;0,389
2;1;13;1;3;direct;uncrossed;0;15,933941;0,389
2;1;14;1;3;mixed;uncrossed;1;11,3225967;0,389
2;1;15;1;4;mixed;uncrossed;0;20,8822412;0,389
2;1;16;1;5;indirect;uncrossed;0;23,5456362;0,389
2;1;17;1;4;indirect;crossed;0;;0,389
2;1;18;2;5;direct;uncrossed;1;19,0009769;0,389
2;1;19;2;3;direct;uncrossed;1;12,988984;0,389
2;1;20;2;3;indirect;crossed;0;21,696527;0,389
2;1;21;2;4;indirect;uncrossed;1;18,7300079;0,389
2;1;22;2;5;direct;crossed;0;22,7562755;0,389
2;1;23;2;4;direct;crossed;0;21,6618841;0,389
2;1;24;2;3;mixed;crossed;0;19,5938537;0,389
2;1;25;2;3;mixed;uncrossed;1;19,3479455;0,389
2;1;26;2;4;mixed;uncrossed;0;;0,389
2;1;27;2;3;direct;crossed;1;12,0861532;0,389
2;1;28;2;3;indirect;uncrossed;1;18,0009102;0,389
2;1;29;2;4;direct;uncrossed;0;14,1880054;0,389
2;1;30;2;5;indirect;uncrossed;0;23,6040782;0,389
2;1;31;2;5;mixed;crossed;0;22,5773791;0,389
2;1;32;2;5;indirect;crossed;0;23,4016322;0,389
2;1;33;2;5;mixed;uncrossed;0;18,8806524;0,389
2;1;34;2;5;indirect;crossed;0;17,2044322;0,389
2;1;35;2;4;indirect;crossed;1;22,2615804;0,389
2;1;36;2;4;mixed;crossed;0;16,8505223;0,389
2;1;37;3;4;direct;crossed;0;21,931824;0,389
2;1;38;3;3;indirect;uncrossed;1;9,8421927;0,389
2;1;39;3;5;indirect;crossed;0;;0,389
2;1;40;3;4;direct;uncrossed;1;12,7463532;0,389
2;1;41;3;4;indirect;crossed;0;21,1465624;0,389
2;1;42;3;4;mixed;crossed;0;19,4761084;0,389
2;1;43;3;5;mixed;crossed;0;23,5073119;0,389
2;1;44;3;4;mixed;uncrossed;0;;0,389
2;1;45;3;3;direct;uncrossed;0;20,7632338;0,389
2;1;46;3;5;indirect;uncrossed;0;15,4925801;0,389
2;1;47;3;5;mixed;uncrossed;0;6,7974103;0,389
2;1;48;3;3;indirect;crossed;0;22,292499;0,389
2;1;49;3;5;direct;crossed;0;21,7118685;0,389
2;1;50;3;3;mixed;crossed;0;23,9681801;0,389
2;1;51;3;4;indirect;uncrossed;0;16,5940657;0,389
2;1;52;3;5;direct;uncrossed;1;15,4413841;0,389
2;1;53;3;3;direct;crossed;0;15,1169792;0,389
2;1;54;3;3;mixed;uncrossed;1;8,5943989;0,389
2;2;1;1;5;direct;crossed;0;23,2043379;0,389
2;2;2;1;3;direct;crossed;1;16,8316396;0,389
2;2;3;1;4;direct;crossed;0;;0,389
2;2;4;1;3;indirect;uncrossed;1;13,6620401;0,389
2;2;5;1;3;mixed;crossed;1;18,4411858;0,389
2;2;6;1;4;indirect;crossed;0;18,458351;0,389
2;2;7;1;5;direct;uncrossed;1;17,9160095;0,389
2;2;8;1;3;indirect;crossed;1;22,6799589;0,389
2;2;9;1;3;mixed;uncrossed;1;18,3908586;0,389
2;2;10;1;5;mixed;uncrossed;1;12,3203923;0,389
2;2;11;1;4;mixed;uncrossed;1;16,3905517;0,389
2;2;12;1;5;mixed;crossed;0;23,1363151;0,389
2;2;13;1;4;indirect;uncrossed;1;18,0347643;0,389
2;2;14;1;5;indirect;uncrossed;1;23,3239387;0,389
2;2;15;1;4;direct;uncrossed;1;19,1194966;0,389
2;2;16;1;3;direct;uncrossed;1;9,9653127;0,389
2;2;17;1;4;mixed;crossed;0;;0,389
2;2;18;2;5;indirect;crossed;0;23,3063194;0,389
2;2;19;2;5;indirect;uncrossed;1;19,1847526;0,389
2;2;20;2;4;indirect;crossed;1;23,6109127;0,389
2;2;21;2;4;indirect;uncrossed;0;22,9164839;0,389
2;2;22;2;3;mixed;crossed;0;;0,389
2;2;23;2;4;direct;crossed;1;20,1875297;0,389
2;2;24;2;4;mixed;uncrossed;0;23,7638532;0,389
2;2;25;2;3;indirect;uncrossed;0;22,374747;0,389
2;2;26;2;5;direct;uncrossed;1;22,7633766;0,389
2;2;27;2;5;direct;crossed;0;22,9501244;0,389
2;2;28;2;5;mixed;uncrossed;0;22,7303079;0,389
2;2;29;2;5;mixed;crossed;0;23,1033201;0,389
2;2;30;2;5;indirect;crossed;0;22,2550721;0,389
2;2;31;2;3;direct;uncrossed;1;10,28865;0,389
2;2;32;2;3;mixed;uncrossed;1;9,8648427;0,389
2;2;33;2;4;mixed;crossed;0;23,6797537;0,389
2;2;34;2;3;indirect;crossed;0;19,6129531;0,389
2;2;35;2;4;direct;uncrossed;1;15,8977462;0,389
2;2;36;2;3;direct;crossed;1;22,3905427;0,389
2;2;37;3;3;mixed;uncrossed;1;12,7638923;0,389
2;2;38;3;3;direct;uncrossed;0;13,5261022;0,389
2;2;39;3;5;direct;crossed;1;23,3730683;0,389
2;2;40;3;4;direct;uncrossed;0;;0,389
2;2;41;3;4;direct;crossed;1;15,7463327;0,389
2;2;42;3;5;indirect;uncrossed;1;22,527664;0,389
2;2;43;3;5;indirect;crossed;0;23,1698048;0,389
2;2;44;3;3;indirect;uncrossed;0;22,6610189;0,389
2;2;45;3;3;direct;crossed;1;15,6446388;0,389
2;2;46;3;4;indirect;uncrossed;1;21,8487285;0,389
2;2;47;3;5;mixed;uncrossed;0;23,1028397;0,389
2;2;48;3;4;mixed;uncrossed;0;;0,389
2;2;49;3;5;mixed;crossed;0;21,4082181;0,389
2;2;50;3;4;indirect;crossed;1;22,915998;0,389
2;2;51;3;4;mixed;crossed;0;;0,389
2;2;52;3;3;mixed;crossed;0;22,4080693;0,389
2;2;53;3;5;direct;uncrossed;0;22,6115439;0,389
2;2;54;3;3;indirect;crossed;0;23,8822093;0,389
3;1;1;1;4;indirect;crossed;0;22,7796646;0,722
3;1;2;1;3;indirect;uncrossed;1;12,1026601;0,722
3;1;3;1;5;direct;crossed;0;23,7133616;0,722
3;1;4;1;4;indirect;uncrossed;1;4,373789;0,722
3;1;5;1;5;direct;uncrossed;1;15,7293951;0,722
3;1;6;1;4;mixed;crossed;0;22,5605713;0,722
3;1;7;1;4;direct;crossed;1;21,5432174;0,722
3;1;8;1;3;direct;crossed;0;12,4078649;0,722
3;1;9;1;3;mixed;crossed;1;20,6112724;0,722
3;1;10;1;3;mixed;uncrossed;1;11,882629;0,722
3;1;11;1;5;mixed;uncrossed;0;22,527182;0,722
3;1;12;1;3;direct;uncrossed;1;6,847759;0,722
3;1;13;1;5;indirect;uncrossed;0;23,6452829;0,722
3;1;14;1;4;direct;uncrossed;0;21,3568518;0,722
3;1;15;1;3;indirect;crossed;1;15,222211;0,722
3;1;16;1;4;mixed;uncrossed;0;;0,722
3;1;17;1;5;mixed;crossed;0;20,4587447;0,722
3;1;18;2;5;direct;uncrossed;1;13,6955174;0,722
3;1;19;2;4;mixed;uncrossed;1;22,407973;0,722
3;1;20;2;5;direct;crossed;1;20,3248698;0,722
3;1;21;2;5;indirect;uncrossed;0;18,4407876;0,722
3;1;22;2;4;direct;uncrossed;0;11,0860766;0,722
3;1;23;2;3;mixed;uncrossed;1;13,2193418;0,722
3;1;24;2;4;indirect;crossed;1;20,7474049;0,722
3;1;25;2;4;indirect;uncrossed;1;11,1874381;0,722
3;1;26;2;5;mixed;uncrossed;1;18,4923396;0,722
3;1;27;2;3;direct;crossed;1;11,017621;0,722
3;1;28;2;3;indirect;uncrossed;1;5,1206971;0,722
3;1;29;2;5;indirect;crossed;0;;0,722
3;1;30;2;4;mixed;crossed;1;19,0519452;0,722
3;1;31;2;5;indirect;crossed;0;21,7469927;0,722
3;1;32;2;4;direct;crossed;1;15,0684841;0,722
3;1;33;2;3;direct;uncrossed;1;8,4073431;0,722
3;1;34;2;3;indirect;crossed;0;18,425139;0,722
3;1;35;2;3;mixed;crossed;0;11,7130996;0,722
3;1;36;2;5;mixed;crossed;1;17,3717894;0,722
3;1;37;3;5;mixed;crossed;1;18,2209342;0,722
3;1;38;3;3;mixed;uncrossed;1;17,4924387;0,722
3;1;39;3;4;indirect;crossed;0;21,7294756;0,722
3;1;40;3;5;direct;uncrossed;1;18,0350365;0,722
3;1;41;3;5;indirect;uncrossed;1;18,4752541;0,722
3;1;42;3;3;indirect;crossed;1;7,3738397;0,722
3;1;43;3;4;mixed;uncrossed;1;18,7827104;0,722
3;1;44;3;3;direct;uncrossed;0;15,270289;0,722
3;1;45;3;4;mixed;crossed;0;22,8503757;0,722
3;1;46;3;5;indirect;crossed;0;17,7117263;0,722
3;1;47;3;3;indirect;uncrossed;1;6,425069;0,722
3;1;48;3;4;indirect;uncrossed;0;10,4079214;0,722
3;1;49;3;5;direct;crossed;1;15,0517194;0,722
3;1;50;3;5;mixed;uncrossed;0;16,7980441;0,722
3;1;51;3;3;mixed;crossed;1;20,086897;0,722
3;1;52;3;3;direct;crossed;1;10,4411795;0,722
3;1;53;3;4;direct;uncrossed;1;12,3566346;0,722
3;1;54;3;4;direct;crossed;0;21,9673532;0,722
3;2;1;1;5;indirect;uncrossed;0;11,6111733;0,722
3;2;2;1;5;direct;uncrossed;1;8,00099;0,722
3;2;3;1;3;direct;uncrossed;0;5,6803832;0,722
3;2;4;1;5;mixed;uncrossed;1;9,0167355;0,722
3;2;5;1;3;indirect;crossed;1;11,1367396;0,722
3;2;6;1;4;mixed;uncrossed;1;10,6954728;0,722
3;2;7;1;4;indirect;uncrossed;1;11,3571632;0,722
3;2;8;1;5;direct;crossed;1;13,60981;0,722
3;2;9;1;3;mixed;crossed;1;13,0672567;0,722
3;2;10;1;3;mixed;uncrossed;1;5,7277707;0,722
3;2;11;1;3;indirect;uncrossed;1;11,3064643;0,722
3;2;12;1;3;direct;crossed;1;10,6105845;0,722
3;2;13;1;4;indirect;crossed;1;20,9487469;0,722
3;2;14;1;4;mixed;crossed;1;14,1713889;0,722
3;2;15;1;5;mixed;crossed;0;14,3050519;0,722
3;2;16;1;4;direct;uncrossed;1;11,7994309;0,722
3;2;17;1;4;direct;crossed;1;15,2369452;0,722
3;2;18;2;3;direct;crossed;1;13,1024722;0,722
3;2;19;2;4;mixed;crossed;1;20,4586629;0,722
3;2;20;2;5;indirect;crossed;1;16,3567498;0,722
3;2;21;2;5;direct;uncrossed;0;15,6283864;0,722
3;2;22;2;5;indirect;crossed;0;23,5943522;0,722
3;2;23;2;3;indirect;uncrossed;1;6,0354438;0,722
3;2;24;2;5;mixed;uncrossed;1;14,559942;0,722
3;2;25;2;4;direct;uncrossed;1;13,153199;0,722
3;2;26;2;4;direct;crossed;1;20,204579;0,722
3;2;27;2;3;indirect;crossed;1;12,7636282;0,722
3;2;28;2;3;mixed;uncrossed;1;9,4416295;0,722
3;2;29;2;4;indirect;crossed;1;13,7134117;0,722
3;2;30;2;4;mixed;uncrossed;0;12,8134275;0,722
3;2;31;2;4;indirect;uncrossed;1;9,5580165;0,722
3;2;32;2;5;mixed;crossed;0;23,8319144;0,722
3;2;33;2;5;indirect;uncrossed;1;20,0518021;0,722
3;2;34;2;3;mixed;crossed;1;8,9848963;0,722
3;2;35;2;5;direct;crossed;1;17,0835551;0,722
3;2;36;2;3;direct;uncrossed;1;10,6117153;0,722
3;2;37;3;4;mixed;uncrossed;1;13,6106794;0,722
3;2;38;3;4;direct;crossed;1;16,3563502;0,722
3;2;39;3;3;indirect;crossed;1;19,0356189;0,722
3;2;40;3;4;mixed;crossed;1;16,3061436;0,722
3;2;41;3;5;direct;uncrossed;1;11,1192962;0,722
3;2;42;3;4;direct;uncrossed;1;10,8136379;0,722
3;2;43;3;4;indirect;crossed;1;18,2549335;0,722
3;2;44;3;5;indirect;crossed;0;19,9163284;0,722
3;2;45;3;5;direct;crossed;1;18,0350891;0,722
3;2;46;3;5;mixed;uncrossed;1;18,2048472;0,722
3;2;47;3;5;indirect;uncrossed;1;19,3735321;0,722
3;2;48;3;3;mixed;uncrossed;1;8,4758744;0,722
3;2;49;3;3;indirect;uncrossed;1;6,6122079;0,722
3;2;50;3;4;indirect;uncrossed;1;4,8138698;0,722
3;2;51;3;3;mixed;crossed;1;9,3745754;0,722
3;2;52;3;5;mixed;crossed;1;18,1385593;0,722
3;2;53;3;3;direct;uncrossed;1;8,4915163;0,722
3;2;54;3;3;direct;crossed;1;8,0178202;0,722
4;1;1;1;5;direct;uncrossed;1;10,9163632;0,63
4;1;2;1;3;direct;uncrossed;1;6,6978027;0,63
4;1;3;1;4;indirect;uncrossed;0;11,4565296;0,63
4;1;4;1;4;direct;uncrossed;1;7,7630959;0,63
4;1;5;1;4;direct;crossed;1;16,5415086;0,63
4;1;6;1;4;mixed;crossed;0;15,119364;0,63
4;1;7;1;4;indirect;crossed;1;19,3887574;0,63
4;1;8;1;5;indirect;uncrossed;0;8,5594941;0,63
4;1;9;1;5;mixed;uncrossed;1;16,6280386;0,63
4;1;10;1;5;direct;crossed;0;16,9669873;0,63
4;1;11;1;3;mixed;uncrossed;1;12,5769715;0,63
4;1;12;1;3;indirect;uncrossed;0;15,189522;0,63
4;1;13;1;4;mixed;uncrossed;1;14,1887061;0,63
4;1;14;1;3;indirect;crossed;1;7,7973526;0,63
4;1;15;1;5;mixed;crossed;0;18,2378746;0,63
4;1;16;1;3;mixed;crossed;1;18,4758784;0,63
4;1;17;1;3;direct;crossed;1;12,0517637;0,63
4;1;18;2;4;direct;crossed;1;10,780167;0,63
4;1;19;2;4;direct;uncrossed;1;8,1192123;0,63
4;1;20;2;5;direct;crossed;1;17,9499332;0,63
4;1;21;2;4;indirect;uncrossed;1;8,8822107;0,63
4;1;22;2;3;direct;uncrossed;1;7,456697;0,63
4;1;23;2;3;mixed;crossed;1;23,3403878;0,63
4;1;24;2;3;indirect;uncrossed;1;8,3230476;0,63
4;1;25;2;5;indirect;crossed;0;16,6279061;0,63
4;1;26;2;4;mixed;crossed;0;23,3230075;0,63
4;1;27;2;3;indirect;crossed;1;8,5601297;0,63
4;1;28;2;5;indirect;uncrossed;0;9,3073164;0,63
4;1;29;2;3;mixed;uncrossed;1;5,3561584;0,63
4;1;30;2;5;mixed;crossed;1;11,7127969;0,63
4;1;31;2;5;indirect;crossed;0;18,6622199;0,63
4;1;32;2;5;mixed;uncrossed;1;7,983645;0,63
4;1;33;2;4;indirect;crossed;0;6,71221;0,63
4;1;34;2;5;direct;uncrossed;1;4,9840937;0,63
4;1;35;2;3;direct;crossed;0;11,5604068;0,63
4;1;36;2;4;mixed;uncrossed;0;7,0849569;0,63
4;1;37;3;3;indirect;uncrossed;0;7,7987833;0,63
4;1;38;3;4;direct;crossed;1;21,8313232;0,63
4;1;39;3;3;direct;crossed;1;8,1029523;0,63
4;1;40;3;5;direct;crossed;0;15,9027259;0,63
4;1;41;3;3;direct;uncrossed;1;15,526424;0,63
4;1;42;3;4;indirect;crossed;0;14,187125;0,63
4;1;43;3;5;mixed;crossed;0;10,9670326;0,63
4;1;44;3;4;indirect;uncrossed;0;5,9827679;0,63
4;1;45;3;4;direct;uncrossed;1;8,1045327;0,63
4;1;46;3;3;mixed;uncrossed;1;9,6435093;0,63
4;1;47;3;5;mixed;uncrossed;1;6,7295127;0,63
4;1;48;3;4;mixed;crossed;1;14,4580834;0,63
4;1;49;3;5;indirect;uncrossed;0;5,4925383;0,63
4;1;50;3;3;mixed;crossed;1;13,6623767;0,63
4;1;51;3;5;direct;uncrossed;1;5,9333746;0,63
4;1;52;3;5;indirect;crossed;0;19,305626;0,63
4;1;53;3;4;mixed;uncrossed;1;6,3735085;0,63
4;1;54;3;3;indirect;crossed;0;10,7817224;0,63
4;2;1;1;3;direct;crossed;0;9,576737;0,63
4;2;2;1;5;mixed;uncrossed;1;7,6612939;0,63
4;2;3;1;5;mixed;crossed;1;13,7972769;0,63
4;2;4;1;3;indirect;uncrossed;1;6,4921044;0,63
4;2;5;1;4;direct;uncrossed;1;7,7476198;0,63
4;2;6;1;3;mixed;uncrossed;1;6,0845425;0,63
4;2;7;1;5;direct;uncrossed;1;5,8485795;0,63
4;2;8;1;3;indirect;crossed;1;21,8989274;0,63
4;2;9;1;4;mixed;uncrossed;0;7,4244753;0,63
4;2;10;1;4;mixed;crossed;0;22,1373993;0,63
4;2;11;1;3;mixed;crossed;0;20,2389744;0,63
4;2;12;1;4;direct;crossed;0;22,068208;0,63
4;2;13;1;3;direct;uncrossed;1;9,0688584;0,63
4;2;14;1;5;direct;crossed;0;14,3057912;0,63
4;2;15;1;5;indirect;uncrossed;0;17,1025427;0,63
4;2;16;1;4;indirect;crossed;0;;0,63
4;2;17;1;4;indirect;uncrossed;1;4,5617379;0,63
4;2;18;2;4;indirect;uncrossed;1;8,5600494;0,63
4;2;19;2;4;direct;crossed;0;;0,63
4;2;20;2;5;mixed;crossed;1;12,0175814;0,63
4;2;21;2;4;indirect;crossed;1;12,8472694;0,63
4;2;22;2;4;mixed;crossed;1;21,1701244;0,63
4;2;23;2;5;direct;uncrossed;1;5,8638884;0,63
4;2;24;2;3;direct;crossed;1;16,5770497;0,63
4;2;25;2;4;direct;uncrossed;1;9,4396741;0,63
4;2;26;2;3;mixed;uncrossed;0;8,7633835;0,63
4;2;27;2;3;indirect;uncrossed;1;9,4749992;0,63
4;2;28;2;3;indirect;crossed;1;6,2211499;0,63
4;2;29;2;4;mixed;uncrossed;1;9,7456821;0,63
4;2;30;2;3;direct;uncrossed;1;5,2717704;0,63
4;2;31;2;3;mixed;crossed;1;12,9989413;0,63
4;2;32;2;5;direct;crossed;0;13,3228899;0,63
4;2;33;2;5;indirect;uncrossed;1;9,0347809;0,63
4;2;34;2;5;indirect;crossed;0;16,2210309;0,63
4;2;35;2;5;indirect;crossed;0;15,3582118;0,63
4;2;36;2;5;mixed;uncrossed;1;8,2379869;0,63
4;2;37;3;4;direct;crossed;1;21,0170744;0,63
4;2;38;3;4;mixed;crossed;0;14,7950787;0,63
4;2;39;3;3;indirect;uncrossed;1;4,8145706;0,63
4;2;40;3;5;direct;uncrossed;1;8,0680973;0,63
4;2;41;3;5;mixed;uncrossed;1;21,5431479;0,63
4;2;42;3;5;direct;crossed;1;20,0856688;0,63
4;2;43;3;3;indirect;crossed;0;8,6958849;0,63
4;2;44;3;3;mixed;uncrossed;1;8,662155;0,63
4;2;45;3;5;indirect;uncrossed;0;8,7618158;0,63
4;2;46;3;4;direct;uncrossed;1;10,9665123;0,63
4;2;47;3;4;indirect;crossed;1;15,6275188;0,63
4;2;48;3;4;mixed;uncrossed;1;7,5439019;0,63
4;2;49;3;3;direct;crossed;1;7,3729979;0,63
4;2;50;3;3;mixed;crossed;0;9,3917268;0,63
4;2;51;3;5;indirect;crossed;0;;0,63
4;2;52;3;4;indirect;uncrossed;1;7,5071111;0,63
4;2;53;3;5;mixed;crossed;0;10,8471469;0,63
4;2;54;3;3;direct;uncrossed;1;7,1345421;0,63
5;1;1;1;5;indirect;uncrossed;0;21,746858;0,38
5;1;2;1;3;direct;uncrossed;1;6,5763657;0,38
5;1;3;1;3;indirect;crossed;1;18,1892222;0,38
5;1;4;1;3;mixed;uncrossed;0;18,4749634;0,38
5;1;5;1;4;direct;crossed;0;22,8653866;0,38
5;1;6;1;5;mixed;uncrossed;1;17,2041458;0,38
5;1;7;1;5;direct;crossed;0;;0,38
5;1;8;1;4;indirect;crossed;0;20,3740457;0,38
5;1;9;1;3;direct;crossed;1;8,6961809;0,38
5;1;10;1;3;mixed;crossed;0;16,3719967;0,38
5;1;11;1;4;indirect;uncrossed;1;17,0686032;0,38
5;1;12;1;5;mixed;crossed;0;13,0674942;0,38
5;1;13;1;4;mixed;crossed;0;6,577282;0,38
5;1;14;1;4;mixed;uncrossed;0;14,6470597;0,38
5;1;15;1;5;direct;uncrossed;1;15,4903126;0,38
5;1;16;1;3;indirect;uncrossed;1;14,0697661;0,38
5;1;17;1;4;direct;uncrossed;1;11,8317963;0,38
5;1;18;2;3;indirect;uncrossed;1;18,6626;0,38
5;1;19;2;3;mixed;uncrossed;1;17,1534084;0,38
5;1;20;2;4;indirect;crossed;1;16,2552205;0,38
5;1;21;2;3;indirect;crossed;0;20,2046329;0,38
5;1;22;2;5;indirect;crossed;1;23,3737709;0,38
5;1;23;2;5;mixed;crossed;0;20,9839446;0,38
5;1;24;2;3;direct;uncrossed;1;8,1701642;0,38
5;1;25;2;5;indirect;uncrossed;0;22,9503656;0,38
5;1;26;2;4;mixed;uncrossed;0;9,5419499;0,38
5;1;27;2;5;indirect;crossed;0;16,6786041;0,38
5;1;28;2;5;direct;crossed;1;20,5767483;0,38
5;1;29;2;3;mixed;crossed;0;11,8823178;0,38
5;1;30;2;4;direct;uncrossed;1;10,2384439;0,38
5;1;31;2;4;mixed;crossed;0;14,5428951;0,38
5;1;32;2;3;direct;crossed;1;8,916021;0,38
5;1;33;2;5;direct;uncrossed;0;9,5772634;0,38
5;1;34;2;4;indirect;uncrossed;0;5,8650623;0,38
5;1;35;2;4;direct;crossed;0;16,3055843;0,38
5;1;36;2;5;mixed;uncrossed;0;15,6598223;0,38
5;1;37;3;3;direct;uncrossed;1;8,0845579;0,38
5;1;38;3;4;indirect;uncrossed;1;20,2722788;0,38
5;1;39;3;4;direct;crossed;0;18,9834161;0,38
5;1;40;3;4;indirect;crossed;0;14,2888753;0,38
5;1;41;3;5;direct;uncrossed;0;12,7969139;0,38
5;1;42;3;3;mixed;uncrossed;1;13,2893525;0,38
5;1;43;3;4;mixed;uncrossed;1;16,7459744;0,38
5;1;44;3;4;mixed;crossed;0;14,764026;0,38
5;1;45;3;4;direct;uncrossed;0;6,0537059;0,38
5;1;46;3;3;direct;crossed;1;16,3213995;0,38
5;1;47;3;5;indirect;crossed;0;8,81396;0,38
5;1;48;3;3;indirect;uncrossed;1;7,7653477;0,38
5;1;49;3;5;direct;crossed;0;21,1047656;0,38
5;1;50;3;5;mixed;uncrossed;0;8,4417349;0,38
5;1;51;3;5;indirect;uncrossed;0;7,7956368;0,38
5;1;52;3;5;mixed;crossed;0;14,7804826;0,38
5;1;53;3;3;indirect;crossed;0;21,7649359;0,38
5;1;54;3;3;mixed;crossed;1;12,3059634;0,38
5;2;1;1;4;indirect;crossed;0;11,0852697;0,38
5;2;2;1;3;mixed;crossed;0;21,7113158;0,38
5;2;3;1;5;direct;uncrossed;1;5,6614723;0,38
5;2;4;1;3;mixed;uncrossed;1;9,4078425;0,38
5;2;5;1;3;direct;crossed;1;10,6448317;0,38
5;2;6;1;4;direct;uncrossed;1;6,966603;0,38
5;2;7;1;5;mixed;crossed;0;11,3584056;0,38
5;2;8;1;3;direct;uncrossed;1;7,8814408;0,38
5;2;9;1;5;indirect;uncrossed;0;11,017951;0,38
5;2;10;1;4;indirect;uncrossed;0;6,2891733;0,38
5;2;11;1;3;indirect;uncrossed;1;9,5946841;0,38
5;2;12;1;4;direct;crossed;0;9,5428621;0,38
5;2;13;1;4;mixed;crossed;0;9,4934887;0,38
5;2;14;1;5;mixed;uncrossed;0;5,7450611;0,38
5;2;15;1;5;direct;crossed;0;14,6281593;0,38
5;2;16;1;3;indirect;crossed;0;8,3734882;0,38
5;2;17;1;4;mixed;uncrossed;1;12,4267133;0,38
5;2;18;2;3;direct;crossed;0;10,0328607;0,38
5;2;19;2;4;direct;crossed;0;4,017571;0,38
5;2;20;2;5;direct;uncrossed;1;4,22093;0,38
5;2;21;2;4;mixed;uncrossed;0;10,679058;0,38
5;2;22;2;5;direct;crossed;0;11,3396746;0,38
5;2;23;2;3;direct;uncrossed;1;7,4753401;0,38
5;2;24;2;5;mixed;uncrossed;0;4,4416602;0,38
5;2;25;2;4;indirect;crossed;0;3,9836102;0,38
5;2;26;2;4;direct;uncrossed;1;5,9498467;0,38
5;2;27;2;3;mixed;crossed;0;7,069562;0,38
5;2;28;2;3;mixed;uncrossed;0;6,7122552;0,38
5;2;29;2;5;mixed;crossed;1;6,2719269;0,38
5;2;30;2;4;mixed;crossed;0;6,3399931;0,38
5;2;31;2;4;indirect;uncrossed;0;4,6794849;0,38
5;2;32;2;3;indirect;uncrossed;0;8,4928444;0,38
5;2;33;2;5;indirect;crossed;0;3,0175883;0,38
5;2;34;2;3;indirect;crossed;1;7,1524456;0,38
5;2;35;2;5;indirect;uncrossed;1;6,5259758;0,38
5;2;36;2;5;indirect;crossed;0;6,45845;0,38
5;2;37;3;4;direct;crossed;0;4,3908055;0,38
5;2;38;3;5;direct;uncrossed;0;4,392649;0,38
5;2;39;3;4;direct;uncrossed;0;4,3216075;0,38
5;2;40;3;3;mixed;uncrossed;1;8,5439018;0,38
5;2;41;3;5;indirect;uncrossed;0;4,0178763;0,38
5;2;42;3;3;mixed;crossed;0;3,0335035;0,38
5;2;43;3;3;indirect;crossed;0;9,4082225;0,38
5;2;44;3;4;indirect;crossed;0;5,4247721;0,38
5;2;45;3;5;direct;crossed;0;9,1680596;0,38
5;2;46;3;3;direct;uncrossed;1;6,6776366;0,38
5;2;47;3;3;indirect;uncrossed;1;5,9339758;0,38
5;2;48;3;3;direct;crossed;0;14,4065984;0,38
5;2;49;3;5;indirect;crossed;1;3,7975925;0,38
5;2;50;3;4;mixed;uncrossed;0;17,6795429;0,38
5;2;51;3;5;mixed;uncrossed;1;16,3757091;0,38
5;2;52;3;4;mixed;crossed;0;5,1859609;0,38
5;2;53;3;5;mixed;crossed;0;8,3373655;0,38
5;2;54;3;4;indirect;uncrossed;0;11,0344816;0,38
6;1;1;1;4;mixed;uncrossed;1;12,7300131;0,426
6;1;2;1;4;mixed;crossed;1;23,4246938;0,426
6;1;3;1;4;indirect;uncrossed;1;10,0348264;0,426
6;1;4;1;3;mixed;crossed;0;15,1344048;0,426
6;1;5;1;3;mixed;uncrossed;0;7,0165931;0,426
6;1;6;1;5;mixed;uncrossed;0;21,3237389;0,426
6;1;7;1;3;direct;uncrossed;1;10,966628;0,426
6;1;8;1;4;direct;uncrossed;1;9,2876024;0,426
6;1;9;1;5;indirect;uncrossed;0;15,3569845;0,426
6;1;10;1;5;mixed;crossed;0;15,3049358;0,426
6;1;11;1;5;direct;uncrossed;1;4,5092467;0,426
6;1;12;1;4;direct;crossed;1;20,339867;0,426
6;1;13;1;4;indirect;crossed;0;9,1028102;0,426
6;1;14;1;5;direct;crossed;0;9,6949507;0,426
6;1;15;1;3;direct;crossed;1;11,2038061;0,426
6;1;16;1;3;indirect;crossed;1;10,5105902;0,426
6;1;17;1;3;indirect;uncrossed;1;10,4944717;0,426
6;1;18;2;3;indirect;crossed;0;11,9315351;0,426
6;1;19;2;4;direct;crossed;0;12,6112079;0,426
6;1;20;2;5;indirect;crossed;0;12,4079724;0,426
6;1;21;2;5;direct;crossed;0;12,1849798;0,426
6;1;22;2;4;indirect;uncrossed;1;10,1535633;0,426
6;1;23;2;5;mixed;crossed;0;6,9671158;0,426
6;1;24;2;3;direct;crossed;0;14,576886;0,426
6;1;25;2;3;indirect;uncrossed;0;2,7634743;0,426
6;1;26;2;4;indirect;crossed;0;5,9838507;0,426
6;1;27;2;3;direct;uncrossed;1;7,5937781;0,426
6;1;28;2;4;mixed;uncrossed;1;8,729288;0,426
6;1;29;2;3;mixed;crossed;0;7,2727213;0,426
6;1;30;2;5;mixed;uncrossed;1;4,5589372;0,426
6;1;31;2;3;mixed;uncrossed;1;8,3583008;0,426
6;1;32;2;5;direct;uncrossed;0;6,3565519;0,426
6;1;33;2;4;mixed;crossed;0;11,6285397;0,426
6;1;34;2;5;indirect;uncrossed;1;8,8821207;0,426
6;1;35;2;4;direct;uncrossed;1;9,7800616;0,426
6;1;36;2;5;indirect;crossed;1;20,6451899;0,426
6;1;37;3;5;indirect;crossed;0;18,0519946;0,426
6;1;38;3;5;mixed;uncrossed;0;8,3907279;0,426
6;1;39;3;3;direct;crossed;1;13,1871783;0,426
6;1;40;3;4;mixed;crossed;0;10,0180319;0,426
6;1;41;3;3;direct;uncrossed;0;6,4079025;0,426
6;1;42;3;5;mixed;crossed;0;10,729433;0,426
6;1;43;3;3;indirect;uncrossed;0;3,7493433;0,426
6;1;44;3;4;indirect;uncrossed;1;10,3724898;0,426
6;1;45;3;3;indirect;crossed;1;12,8153383;0,426
6;1;46;3;5;direct;crossed;0;9,5624657;0,426
6;1;47;3;3;mixed;uncrossed;1;10,5240781;0,426
6;1;48;3;5;indirect;uncrossed;0;7,7127151;0,426
6;1;49;3;3;mixed;crossed;0;14,5261711;0,426
6;1;50;3;5;direct;uncrossed;1;10,1174588;0,426
6;1;51;3;4;mixed;uncrossed;0;9,4755454;0,426
6;1;52;3;4;direct;uncrossed;0;4,8311925;0,426
6;1;53;3;4;direct;crossed;1;7,1703556;0,426
6;1;54;3;4;indirect;crossed;1;7,6450273;0,426
6;2;1;1;4;direct;uncrossed;1;10,5599286;0,426
6;2;2;1;3;direct;crossed;1;5,4925763;0,426
6;2;3;1;5;indirect;uncrossed;0;6,8987161;0,426
6;2;4;1;4;mixed;crossed;0;5,8990304;0,426
6;2;5;1;5;mixed;crossed;0;6,7806485;0,426
6;2;6;1;4;indirect;uncrossed;0;8,6471726;0,426
6;2;7;1;5;direct;uncrossed;0;7,7790049;0,426
6;2;8;1;3;indirect;uncrossed;1;3,289604;0,426
6;2;9;1;4;direct;crossed;0;9,4243073;0,426
6;2;10;1;5;mixed;uncrossed;1;4,9834656;0,426
6;2;11;1;4;mixed;uncrossed;1;11,2715439;0,426
6;2;12;1;3;mixed;uncrossed;1;5,5775281;0,426
6;2;13;1;5;direct;crossed;0;4,3225048;0,426
6;2;14;1;3;indirect;crossed;0;4,8808026;0,426
6;2;15;1;4;indirect;crossed;0;5,2893182;0,426
6;2;16;1;3;mixed;crossed;0;8,7125708;0,426
6;2;17;1;3;direct;uncrossed;0;5,7634069;0,426
6;2;18;2;4;direct;uncrossed;1;4,5429746;0,426
6;2;19;2;5;indirect;crossed;0;8,8321502;0,426
6;2;20;2;3;direct;crossed;1;9,3214465;0,426
6;2;21;2;3;indirect;crossed;0;4,1701856;0,426
6;2;22;2;5;mixed;crossed;0;2,832688;0,426
6;2;23;2;4;mixed;crossed;0;5,626735;0,426
6;2;24;2;3;direct;uncrossed;1;8,4244911;0,426
6;2;25;2;5;direct;uncrossed;1;8,0853646;0,426
6;2;26;2;5;indirect;uncrossed;0;5,0688302;0,426
6;2;27;2;4;indirect;crossed;0;3,0688254;0,426
6;2;28;2;4;mixed;uncrossed;1;3,9164564;0,426
6;2;29;2;4;direct;crossed;0;5,6439449;0,426
6;2;30;2;3;mixed;crossed;0;5,6106012;0,426
6;2;31;2;4;indirect;uncrossed;0;8,4754244;0,426
6;2;32;2;5;direct;crossed;0;5,6769092;0,426
6;2;33;2;5;indirect;crossed;0;2,6130453;0,426
6;2;34;2;3;indirect;uncrossed;1;4,8979361;0,426
6;2;35;2;3;mixed;uncrossed;0;6,4244411;0,426
6;2;36;2;5;mixed;uncrossed;0;6,6950684;0,426
6;2;37;3;4;direct;crossed;1;10,3560173;0,426
6;2;38;3;3;direct;crossed;0;8,9671537;0,426
6;2;39;3;5;direct;crossed;0;10,1023875;0,426
6;2;40;3;5;indirect;uncrossed;0;8,1026223;0,426
6;2;41;3;3;direct;uncrossed;1;6,4245283;0,426
6;2;42;3;4;indirect;uncrossed;1;7,2886752;0,426
6;2;43;3;4;direct;uncrossed;1;7,4585642;0,426
6;2;44;3;3;indirect;uncrossed;1;4,8818292;0,426
6;2;45;3;5;direct;uncrossed;1;9,0370733;0,426
6;2;46;3;3;mixed;crossed;1;8,2024129;0,426
6;2;47;3;3;indirect;crossed;0;4,0514538;0,426
6;2;48;3;3;mixed;uncrossed;0;4,5267907;0,426
6;2;49;3;5;indirect;crossed;0;2,4252044;0,426
6;2;50;3;5;mixed;crossed;0;5,7294003;0,426
6;2;51;3;4;mixed;uncrossed;1;3,6949568;0,426
6;2;52;3;4;indirect;crossed;0;2,356565;0,426
6;2;53;3;5;mixed;uncrossed;1;4,9497264;0,426
6;2;54;3;4;mixed;crossed;0;6,7636009;0,426
7;1;1;1;3;mixed;uncrossed;0;15,7985024;0,444
7;1;2;1;5;direct;uncrossed;1;19,0508233;0,444
7;1;3;1;3;direct;uncrossed;1;9,4251612;0,444
7;1;4;1;4;direct;uncrossed;0;;0,444
7;1;5;1;3;indirect;uncrossed;1;11,5605653;0,444
7;1;6;1;4;indirect;crossed;0;;0,444
7;1;7;1;5;mixed;crossed;0;19,7137341;0,444
7;1;8;1;5;direct;crossed;1;17,8471625;0,444
7;1;9;1;5;mixed;uncrossed;1;22,5431234;0,444
7;1;10;1;3;direct;crossed;1;21,8302456;0,444
7;1;11;1;4;mixed;crossed;0;16,3571353;0,444
7;1;12;1;4;mixed;uncrossed;0;16,1358206;0,444
7;1;13;1;3;mixed;crossed;1;20,1024343;0,444
7;1;14;1;4;direct;crossed;0;10,9670566;0,444
7;1;15;1;3;indirect;crossed;0;18,6786451;0,444
7;1;16;1;4;indirect;uncrossed;1;18,612793;0,444
7;1;17;1;5;indirect;uncrossed;1;22,3554281;0,444
7;1;18;2;5;direct;uncrossed;0;10,1535906;0,444
7;1;19;2;5;mixed;uncrossed;0;13,594761;0,444
7;1;20;2;3;mixed;uncrossed;0;;0,444
7;1;21;2;5;indirect;crossed;0;;0,444
7;1;22;2;4;direct;uncrossed;0;11,748944;0,444
7;1;23;2;3;indirect;crossed;0;23,5090659;0,444
7;1;24;2;5;indirect;uncrossed;0;11,5768715;0,444
7;1;25;2;3;direct;uncrossed;0;14,1015562;0,444
7;1;26;2;3;indirect;uncrossed;1;10,1376763;0,444
7;1;27;2;5;indirect;crossed;0;22,0854912;0,444
7;1;28;2;5;direct;crossed;0;21,599667;0,444
7;1;29;2;4;indirect;uncrossed;1;9,8480663;0,444
7;1;30;2;5;mixed;crossed;0;23,0008063;0,444
7;1;31;2;4;mixed;crossed;0;22,7299415;0,444
7;1;32;2;4;mixed;uncrossed;0;17,9503919;0,444
7;1;33;2;3;direct;crossed;0;;0,444
7;1;34;2;4;indirect;crossed;0;19,4755013;0,444
7;1;35;2;3;mixed;crossed;0;20,8157823;0,444
7;1;36;2;4;direct;crossed;1;22,4931949;0,444
7;1;37;3;3;direct;crossed;0;22,0011902;0,444
7;1;38;3;5;mixed;uncrossed;1;10,3568913;0,444
7;1;39;3;4;mixed;uncrossed;0;5,322987;0,444
7;1;40;3;4;indirect;uncrossed;1;8,5599075;0,444
7;1;41;3;4;indirect;crossed;0;;0,444
7;1;42;3;3;mixed;crossed;0;18,967708;0,444
7;1;43;3;5;indirect;crossed;0;20,4261282;0,444
7;1;44;3;4;mixed;crossed;0;19,9338413;0,444
7;1;45;3;3;indirect;uncrossed;1;6,6959856;0,444
7;1;46;3;3;indirect;crossed;1;9,3738738;0,444
7;1;47;3;5;direct;uncrossed;1;7,7468375;0,444
7;1;48;3;5;direct;crossed;0;17,9158795;0,444
7;1;49;3;3;mixed;uncrossed;1;13,5604601;0,444
7;1;50;3;4;direct;crossed;0;23,6795139;0,444
7;1;51;3;5;mixed;crossed;1;16,6617039;0,444
7;1;52;3;4;direct;uncrossed;1;11,6106676;0,444
7;1;53;3;3;direct;uncrossed;1;6,8987902;0,444
7;1;54;3;5;indirect;uncrossed;0;10,1536291;0,444
7;2;1;1;5;mixed;uncrossed;0;5,5075213;0,444
7;2;2;1;4;direct;crossed;0;10,3080461;0,444
7;2;3;1;4;mixed;uncrossed;1;7,7277505;0,444
7;2;4;1;3;mixed;uncrossed;1;7,05375;0,444
7;2;5;1;3;direct;uncrossed;1;5,5749984;0,444
7;2;6;1;3;mixed;crossed;1;11,1708222;0,444
7;2;7;1;5;mixed;crossed;1;10,7136741;0,444
7;2;8;1;3;indirect;crossed;1;11,5417012;0,444
7;2;9;1;5;direct;crossed;1;21,3907685;0,444
7;2;10;1;4;indirect;uncrossed;0;8,6278017;0,444
7;2;11;1;3;direct;crossed;0;17,7137152;0,444
7;2;12;1;5;indirect;uncrossed;0;7,5253811;0,444
7;2;13;1;5;direct;uncrossed;0;14,1701301;0,444
7;2;14;1;4;mixed;crossed;0;11,9163328;0,444
7;2;15;1;4;direct;uncrossed;0;20,6955687;0,444
7;2;16;1;4;indirect;crossed;0;13,0837192;0,444
7;2;17;1;3;indirect;uncrossed;1;4,136228;0,444
7;2;18;2;5;indirect;crossed;0;22,6790812;0,444
7;2;19;2;5;indirect;crossed;0;15,1701398;0,444
7;2;20;2;3;indirect;crossed;0;10,5600686;0,444
7;2;21;2;3;mixed;uncrossed;1;11,1869428;0,444
7;2;22;2;5;direct;crossed;0;20,9160207;0,444
7;2;23;2;4;direct;crossed;1;15,8482758;0,444
7;2;24;2;3;mixed;crossed;1;23,1368008;0,444
7;2;25;2;4;indirect;crossed;0;22,0007085;0,444
7;2;26;2;5;direct;uncrossed;1;7,0009554;0,444
7;2;27;2;3;direct;uncrossed;0;6,8640292;0,444
7;2;28;2;4;mixed;uncrossed;0;9,0516605;0,444
7;2;29;2;4;indirect;uncrossed;1;13,4585076;0,444
7;2;30;2;5;mixed;uncrossed;0;10,2381659;0,444
7;2;31;2;3;indirect;uncrossed;1;5,0163746;0,444
7;2;32;2;5;mixed;crossed;1;16,4242572;0,444
7;2;33;2;5;indirect;uncrossed;0;11,7987284;0,444
7;2;34;2;4;mixed;crossed;0;;0,444
7;2;35;2;3;direct;crossed;1;12,7293672;0,444
7;2;36;2;4;direct;uncrossed;1;10,8632181;0,444
7;2;37;3;4;mixed;crossed;1;16,49192;0,444
7;2;38;3;4;direct;uncrossed;1;8,9140833;0,444
7;2;39;3;3;indirect;crossed;0;19,7973369;0,444
7;2;40;3;3;mixed;uncrossed;1;6,6087511;0,444
7;2;41;3;3;indirect;uncrossed;1;6,612827;0,444
7;2;42;3;5;mixed;crossed;0;14,9656149;0,444
7;2;43;3;4;indirect;crossed;1;11,8319968;0,444
7;2;44;3;5;mixed;uncrossed;1;16,8822988;0,444
7;2;45;3;5;indirect;uncrossed;0;14,305626;0,444
7;2;46;3;3;direct;uncrossed;1;5,5416733;0,444
7;2;47;3;4;indirect;uncrossed;1;9,5432162;0,444
7;2;48;3;3;mixed;crossed;0;15,4924488;0,444
7;2;49;3;4;mixed;uncrossed;0;9,7978904;0,444
7;2;50;3;4;direct;crossed;1;17,4580836;0,444
7;2;51;3;5;indirect;crossed;0;19,272076;0,444
7;2;52;3;5;direct;crossed;0;14,1198114;0,444
7;2;53;3;3;direct;crossed;0;19,5096165;0,444
7;2;54;3;5;direct;uncrossed;1;9,678467;0,444
8;1;1;1;5;indirect;uncrossed;0;9,4244714;0,889
8;1;2;1;5;mixed;uncrossed;1;9,2211107;0,889
8;1;3;1;3;mixed;uncrossed;1;8,0693341;0,889
8;1;4;1;3;direct;crossed;1;13,1354842;0,889
8;1;5;1;4;direct;crossed;1;10,5089494;0,889
8;1;6;1;5;direct;crossed;1;15,9333143;0,889
8;1;7;1;3;mixed;crossed;1;14,2879802;0,889
8;1;8;1;4;direct;uncrossed;1;10,6443586;0,889
8;1;9;1;5;mixed;crossed;1;22,3394398;0,889
8;1;10;1;4;indirect;crossed;1;14,763518;0,889
8;1;11;1;3;indirect;crossed;1;11,4757212;0,889
8;1;12;1;3;indirect;uncrossed;1;6,8469021;0,889
8;1;13;1;3;direct;uncrossed;1;12,7989837;0,889
8;1;14;1;5;direct;uncrossed;1;8,0169274;0,889
8;1;15;1;4;indirect;uncrossed;1;8,9496433;0,889
8;1;16;1;4;mixed;uncrossed;0;9,7122636;0,889
8;1;17;1;4;mixed;crossed;1;9,254286;0,889
8;1;18;2;5;direct;crossed;1;16,0348151;0,889
8;1;19;2;3;direct;uncrossed;1;11,0166093;0,889
8;1;20;2;5;direct;uncrossed;1;15,1701142;0,889
8;1;21;2;5;indirect;uncrossed;0;20,3044018;0,889
8;1;22;2;5;mixed;uncrossed;1;17,9839103;0,889
8;1;23;2;3;mixed;uncrossed;1;9,3736663;0,889
8;1;24;2;4;direct;crossed;0;7,407425;0,889
8;1;25;2;3;indirect;crossed;1;11,9010133;0,889
8;1;26;2;3;mixed;crossed;1;7,1187671;0,889
8;1;27;2;3;indirect;uncrossed;1;8,6790091;0,889
8;1;28;2;3;direct;crossed;0;5,7976579;0,889
8;1;29;2;4;mixed;crossed;1;10,913963;0,889
8;1;30;2;4;indirect;uncrossed;0;6,4074984;0,889
8;1;31;2;5;indirect;crossed;1;14,7805477;0,889
8;1;32;2;4;indirect;crossed;0;;0,889
8;1;33;2;5;indirect;crossed;1;18,9331017;0,889
8;1;34;2;4;direct;uncrossed;1;6,4072758;0,889
8;1;35;2;5;mixed;crossed;1;12,3568011;0,889
8;1;36;2;4;mixed;uncrossed;1;14,8484056;0,889
8;1;37;3;3;mixed;uncrossed;1;5,9842425;0,889
8;1;38;3;5;indirect;uncrossed;1;12,5253891;0,889
8;1;39;3;3;direct;crossed;1;9,3571353;0,889
8;1;40;3;4;mixed;uncrossed;1;7,0005237;0,889
8;1;41;3;4;indirect;crossed;1;12,2891706;0,889
8;1;42;3;4;direct;uncrossed;1;9,9830347;0,889
8;1;43;3;3;direct;uncrossed;1;3,6795226;0,889
8;1;44;3;5;mixed;uncrossed;1;8,9156172;0,889
8;1;45;3;4;direct;crossed;0;12,2551182;0,889
8;1;46;3;4;indirect;uncrossed;1;8,3395844;0,889
8;1;47;3;5;mixed;crossed;1;11,4584792;0,889
8;1;48;3;5;indirect;crossed;1;20,5091678;0,889
8;1;49;3;4;mixed;crossed;1;13,6454339;0,889
8;1;50;3;5;direct;uncrossed;1;10,441842;0,889
8;1;51;3;3;mixed;crossed;1;11,017335;0,889
8;1;52;3;3;indirect;uncrossed;1;7,8307488;0,889
8;1;53;3;3;indirect;crossed;0;7,2900019;0,889
8;1;54;3;5;direct;crossed;1;11,8652185;0,889
8;2;1;1;5;mixed;uncrossed;1;11,509145;0,889
8;2;2;1;5;direct;uncrossed;1;7,9017276;0,889
8;2;3;1;3;mixed;uncrossed;1;3,7958482;0,889
8;2;4;1;4;mixed;uncrossed;0;5,1190772;0,889
8;2;5;1;4;direct;crossed;0;8,1704932;0,889
8;2;6;1;3;direct;crossed;1;4,2539569;0,889
8;2;7;1;3;indirect;uncrossed;1;4,0851048;0,889
8;2;8;1;3;indirect;crossed;1;6,0345538;0,889
8;2;9;1;4;indirect;uncrossed;0;6,6110845;0,889
8;2;10;1;3;direct;uncrossed;1;4,6786042;0,889
8;2;11;1;5;mixed;crossed;1;11,6114215;0,889
8;2;12;1;4;mixed;crossed;1;7,1042531;0,889
8;2;13;1;5;direct;crossed;1;5,814439;0,889
8;2;14;1;4;indirect;crossed;1;14,3568524;0,889
8;2;15;1;5;indirect;uncrossed;1;9,3232078;0,889
8;2;16;1;3;mixed;crossed;1;6,2563629;0,889
8;2;17;1;4;direct;uncrossed;1;6,7462153;0,889
8;2;18;2;5;mixed;uncrossed;1;7,0854076;0,889
8;2;19;2;5;indirect;crossed;1;12,2888054;0,889
8;2;20;2;5;direct;crossed;1;8,5771003;0,889
8;2;21;2;5;mixed;crossed;1;7,1869163;0,889
8;2;22;2;3;mixed;uncrossed;1;6,9665286;0,889
8;2;23;2;3;indirect;crossed;1;5,6113757;0,889
8;2;24;2;4;indirect;uncrossed;1;4,4749886;0,889
8;2;25;2;3;direct;crossed;1;4,9159263;0,889
8;2;26;2;3;mixed;crossed;1;7,069071;0,889
8;2;27;2;4;indirect;crossed;1;16,3571449;0,889
8;2;28;2;4;mixed;uncrossed;1;5,5090552;0,889
8;2;29;2;5;indirect;crossed;1;8,5091861;0,889
8;2;30;2;5;indirect;uncrossed;1;9,0695082;0,889
8;2;31;2;4;direct;crossed;1;5,4584724;0,889
8;2;32;2;3;direct;uncrossed;1;5,2721302;0,889
8;2;33;2;5;direct;uncrossed;1;4,5083198;0,889
8;2;34;2;4;direct;uncrossed;1;5,4935086;0,889
8;2;35;2;3;indirect;uncrossed;1;6,2895322;0,889
8;2;36;2;4;mixed;crossed;1;7,1873749;0,889
8;2;37;3;5;mixed;crossed;1;11,1849388;0,889
8;2;38;3;3;direct;crossed;1;4,4945143;0,889
8;2;39;3;3;indirect;crossed;1;4,9656675;0,889
8;2;40;3;5;indirect;uncrossed;1;15,2381896;0,889
8;2;41;3;3;mixed;uncrossed;1;3,6963574;0,889
8;2;42;3;3;indirect;uncrossed;1;6,2563231;0,889
8;2;43;3;4;direct;uncrossed;1;2,6950928;0,889
8;2;44;3;4;direct;crossed;1;7,0208218;0,889
8;2;45;3;5;indirect;crossed;1;13,6110142;0,889
8;2;46;3;3;direct;uncrossed;1;4,6445449;0,889
8;2;47;3;4;mixed;crossed;1;8,3226601;0,889
8;2;48;3;5;direct;crossed;1;8,4246139;0,889
8;2;49;3;3;mixed;crossed;1;8,408753;0,889
8;2;50;3;5;direct;uncrossed;1;5,2548235;0,889
8;2;51;3;5;mixed;uncrossed;1;6,9634142;0,889
8;2;52;3;4;indirect;uncrossed;1;6,6795529;0,889
8;2;53;3;4;indirect;crossed;1;6,6784384;0,889
8;2;54;3;4;mixed;uncrossed;1;12,3228939;0,889
9;2;1;1;3;direct;uncrossed;1;8,6268816;0,593
9;2;2;1;5;direct;crossed;0;18,4757753;0,593
9;2;3;1;3;mixed;crossed;0;22,9142543;0,593
9;2;4;1;4;indirect;crossed;1;22,7641146;0,593
9;2;5;1;5;mixed;uncrossed;0;22,1365883;0,593
9;2;6;1;3;indirect;crossed;1;23,2216227;0,593
9;2;7;1;4;mixed;crossed;0;;0,593
9;2;8;1;5;direct;uncrossed;0;18,1703433;0,593
9;2;9;1;4;direct;crossed;1;18,2365095;0,593
9;2;10;1;3;direct;crossed;1;18,5433655;0,593
9;2;11;1;4;direct;uncrossed;1;17,9342485;0,593
9;2;12;1;3;indirect;uncrossed;0;;0,593
9;2;13;1;5;mixed;crossed;1;13,0007816;0,593
9;2;14;1;4;mixed;uncrossed;0;7,3398149;0,593
9;2;15;1;4;indirect;uncrossed;1;16,8479149;0,593
9;2;16;1;3;mixed;uncrossed;1;14,2373145;0,593
9;2;17;1;5;indirect;uncrossed;0;20,3905793;0,593
9;2;18;2;3;indirect;uncrossed;1;19,6796174;0,593
9;2;19;2;3;mixed;crossed;1;14,8123007;0,593
9;2;20;2;5;mixed;uncrossed;1;17,0010776;0,593
9;2;21;2;4;indirect;crossed;1;23,5775762;0,593
9;2;22;2;4;mixed;crossed;1;20,9161102;0,593
9;2;23;2;5;mixed;crossed;0;23,8652789;0,593
9;2;24;2;5;indirect;uncrossed;0;;0,593
9;2;25;2;5;direct;crossed;0;23,0685039;0,593
9;2;26;2;3;direct;uncrossed;1;10,5091903;0,593
9;2;27;2;3;direct;crossed;1;13,2722501;0,593
9;2;28;2;5;indirect;crossed;0;17,1516339;0,593
9;2;29;2;4;indirect;uncrossed;0;23,492639;0,593
9;2;30;2;4;mixed;uncrossed;0;;0,593
9;2;31;2;4;direct;crossed;1;19,2213552;0,593
9;2;32;2;3;mixed;uncrossed;1;15,4585851;0,593
9;2;33;2;3;indirect;crossed;1;19,645549;0,593
9;2;34;2;5;indirect;crossed;0;;0,593
9;2;35;2;4;direct;uncrossed;1;19,9333158;0,593
9;2;36;2;5;direct;uncrossed;1;14,746594;0,593
9;2;37;3;4;indirect;uncrossed;1;12,3398425;0,593
9;2;38;3;4;indirect;crossed;1;16,6282748;0,593
9;2;39;3;5;direct;crossed;0;;0,593
9;2;40;3;3;mixed;uncrossed;1;13,5090021;0,593
9;2;41;3;5;indirect;crossed;0;;0,593
9;2;42;3;5;direct;uncrossed;1;10,2380243;0,593
9;2;43;3;3;direct;uncrossed;1;13,0664629;0,593
9;2;44;3;5;mixed;crossed;0;;0,593
9;2;45;3;3;mixed;crossed;1;8,999831;0,593
9;2;46;3;3;indirect;uncrossed;1;22,255159;0,593
9;2;47;3;4;direct;uncrossed;1;14,1869963;0,593
9;2;48;3;3;indirect;crossed;1;13,6966116;0,593
9;2;49;3;5;mixed;uncrossed;0;23,7136828;0,593
9;2;50;3;3;direct;crossed;1;12,8818591;0,593
9;2;51;3;4;mixed;crossed;0;19,8313927;0,593
9;2;52;3;4;direct;crossed;1;16,3405654;0,593
9;2;53;3;5;indirect;uncrossed;0;23,1200662;0,593
9;2;54;3;4;mixed;uncrossed;0;19,2039617;0,593
10;1;1;1;3;direct;uncrossed;1;7,8143849;0,639
10;1;2;1;5;mixed;uncrossed;0;12,4416058;0,639
10;1;3;1;3;indirect;uncrossed;1;5,9664597;0,639
10;1;4;1;3;indirect;crossed;0;9,9672589;0,639
10;1;5;1;3;direct;crossed;0;18,3395868;0,639
10;1;6;1;4;mixed;crossed;0;;0,639
10;1;7;1;5;indirect;uncrossed;0;13,5261511;0,639
10;1;8;1;3;mixed;crossed;1;21,7812144;0,639
10;1;9;1;4;direct;crossed;1;18,0347478;0,639
10;1;10;1;4;indirect;crossed;0;11,7317071;0,639
10;1;11;1;5;direct;crossed;1;14,8132147;0,639
10;1;12;1;5;mixed;crossed;0;18,3727856;0,639
10;1;13;1;4;indirect;uncrossed;0;15,7125186;0,639
10;1;14;1;4;direct;uncrossed;1;7,9667377;0,639
10;1;15;1;3;mixed;uncrossed;1;15,2402954;0,639
10;1;16;1;5;direct;uncrossed;1;10,9655322;0,639
10;1;17;1;4;mixed;uncrossed;0;12,9159886;0,639
10;1;18;2;4;indirect;crossed;0;11,0007421;0,639
10;1;19;2;5;mixed;crossed;1;19,8648698;0,639
10;1;20;2;5;indirect;crossed;0;21,0518536;0,639
10;1;21;2;5;direct;crossed;0;18,6959372;0,639
10;1;22;2;5;indirect;crossed;0;14,2567098;0,639
10;1;23;2;5;direct;uncrossed;0;20,3910309;0,639
10;1;24;2;3;mixed;crossed;0;19,3583638;0,639
10;1;25;2;3;direct;uncrossed;1;7,8978716;0,639
10;1;26;2;4;direct;crossed;0;16,9333911;0,639
10;1;27;2;4;mixed;uncrossed;1;10,5769426;0,639
10;1;28;2;4;indirect;uncrossed;0;6,1381837;0,639
10;1;29;2;4;mixed;crossed;0;9,253646;0,639
10;1;30;2;3;indirect;crossed;1;21,3218771;0,639
10;1;31;2;5;mixed;uncrossed;1;6,6447057;0,639
10;1;32;2;4;direct;uncrossed;1;5,5244353;0,639
10;1;33;2;3;mixed;uncrossed;1;10,3886223;0,639
10;1;34;2;5;indirect;uncrossed;0;10,6283533;0,639
10;1;35;2;3;indirect;uncrossed;1;8,7627484;0,639
10;1;36;2;3;direct;crossed;0;14,1891413;0,639
10;1;37;3;4;direct;uncrossed;1;9,7120985;0,639
10;1;38;3;4;mixed;crossed;0;23,730457;0,639
10;1;39;3;5;indirect;crossed;0;8,7629178;0,639
10;1;40;3;3;mixed;crossed;1;15,5262288;0,639
10;1;41;3;5;direct;uncrossed;0;14,9834888;0,639
10;1;42;3;5;direct;crossed;1;15,103323;0,639
10;1;43;3;3;direct;uncrossed;0;7,0855242;0,639
10;1;44;3;3;indirect;uncrossed;1;17,9177538;0,639
10;1;45;3;4;indirect;crossed;0;9,6942868;0,639
10;1;46;3;4;indirect;uncrossed;0;7,6280399;0,639
10;1;47;3;4;direct;crossed;1;21,7295125;0,639
10;1;48;3;3;indirect;crossed;0;9,8142679;0,639
10;1;49;3;5;mixed;uncrossed;1;11,8988046;0,639
10;1;50;3;3;mixed;uncrossed;1;13,8650699;0,639
10;1;51;3;4;mixed;uncrossed;1;7,3054554;0,639
10;1;52;3;3;direct;crossed;1;19,9839808;0,639
10;1;53;3;5;indirect;uncrossed;1;11,1361443;0,639
10;1;54;3;5;mixed;crossed;0;13,4920294;0,639
10;2;1;1;3;indirect;crossed;1;10,5434041;0,639
10;2;2;1;4;mixed;uncrossed;1;9,9668683;0,639
10;2;3;1;4;direct;crossed;1;14,4924852;0,639
10;2;4;1;3;direct;crossed;0;8,3905637;0,639
10;2;5;1;4;direct;uncrossed;1;12,4920333;0,639
10;2;6;1;3;indirect;uncrossed;1;10,9331316;0,639
10;2;7;1;3;mixed;crossed;1;8,5259351;0,639
10;2;8;1;3;direct;uncrossed;0;9,508815;0,639
10;2;9;1;4;indirect;crossed;0;;0,639
10;2;10;1;3;mixed;uncrossed;1;7,8317089;0,639
10;2;11;1;5;direct;uncrossed;1;11,9162617;0,639
10;2;12;1;4;indirect;uncrossed;1;6,56019;0,639
10;2;13;1;5;direct;crossed;1;12,2042651;0,639
10;2;14;1;5;mixed;uncrossed;1;18,7973978;0,639
10;2;15;1;4;mixed;crossed;1;21,2728566;0,639
10;2;16;1;5;indirect;uncrossed;1;15,950159;0,639
10;2;17;1;5;mixed;crossed;1;9,1530973;0,639
10;2;18;2;4;indirect;crossed;0;17,7138026;0,639
10;2;19;2;4;mixed;crossed;1;14,8309106;0,639
10;2;20;2;3;indirect;crossed;0;10,1541409;0,639
10;2;21;2;5;indirect;uncrossed;1;16,0160877;0,639
10;2;22;2;4;direct;crossed;1;11,1362447;0,639
10;2;23;2;5;direct;uncrossed;1;19,4733494;0,639
10;2;24;2;5;indirect;crossed;1;20,3248919;0,639
10;2;25;2;3;mixed;crossed;1;11,2704169;0,639
10;2;26;2;5;direct;crossed;1;16,4923299;0,639
10;2;27;2;3;direct;crossed;1;10,1029343;0,639
10;2;28;2;4;indirect;uncrossed;1;12,7295648;0,639
10;2;29;2;3;indirect;uncrossed;1;10,5926376;0,639
10;2;30;2;3;direct;uncrossed;1;8,4906257;0,639
10;2;31;2;5;mixed;uncrossed;1;23,3229416;0,639
10;2;32;2;5;indirect;crossed;0;12,8825755;0,639
10;2;33;2;4;direct;uncrossed;1;13,2721988;0,639
10;2;34;2;3;mixed;uncrossed;1;9,2039941;0,639
10;2;35;2;4;mixed;uncrossed;1;11,3397391;0,639
10;2;36;2;5;mixed;crossed;1;12,6785458;0,639
10;2;37;3;3;mixed;uncrossed;1;7,1343865;0,639
10;2;38;3;3;direct;uncrossed;1;8,5259639;0,639
10;2;39;3;5;indirect;uncrossed;0;12,2888798;0,639
10;2;40;3;4;direct;uncrossed;1;12,6785141;0,639
10;2;41;3;4;mixed;crossed;1;15,5598891;0,639
10;2;42;3;3;mixed;crossed;0;10,0359194;0,639
10;2;43;3;4;indirect;uncrossed;1;8,7290529;0,639
10;2;44;3;5;direct;crossed;0;;0,639
10;2;45;3;3;indirect;crossed;1;9,6465481;0,639
10;2;46;3;5;indirect;crossed;1;12,6272001;0,639
10;2;47;3;3;indirect;uncrossed;1;6,4924807;0,639
10;2;48;3;4;mixed;uncrossed;0;12,2559739;0,639
10;2;49;3;4;indirect;crossed;1;18,7984645;0,639
10;2;50;3;3;direct;crossed;1;8,3408244;0,639
10;2;51;3;5;mixed;crossed;1;21,7118158;0,639
10;2;52;3;4;direct;crossed;1;14,4411202;0,639
10;2;53;3;5;direct;uncrossed;0;14,4586745;0,639
10;2;54;3;5;mixed;uncrossed;1;11,6616884;0,639
11;1;1;1;5;indirect;uncrossed;0;8,1192443;0,528
11;1;2;1;5;mixed;crossed;1;16,6954962;0,528
11;1;3;1;3;direct;crossed;1;9,0873681;0,528
11;1;4;1;4;direct;crossed;1;17,1181815;0,528
11;1;5;1;3;mixed;uncrossed;0;12,1889066;0,528
11;1;6;1;5;direct;crossed;0;;0,528
11;1;7;1;5;direct;uncrossed;0;8,9864988;0,528
11;1;8;1;4;mixed;uncrossed;1;22,0354782;0,528
11;1;9;1;5;mixed;uncrossed;0;13,0853498;0,528
11;1;10;1;3;indirect;uncrossed;1;11,7977981;0,528
11;1;11;1;4;direct;uncrossed;1;10,9672655;0,528
11;1;12;1;4;indirect;uncrossed;1;21,9500999;0,528
11;1;13;1;4;indirect;crossed;1;22,6453244;0,528
11;1;14;1;4;mixed;crossed;0;20,5068375;0,528
11;1;15;1;3;direct;uncrossed;0;9,0338175;0,528
11;1;16;1;3;indirect;crossed;0;17,1045113;0,528
11;1;17;1;3;mixed;crossed;1;10,560896;0,528
11;1;18;2;5;mixed;crossed;1;11,7293628;0,528
11;1;19;2;5;mixed;uncrossed;0;13,4413974;0,528
11;1;20;2;5;indirect;crossed;0;22,8312587;0,528
11;1;21;2;4;indirect;uncrossed;1;7,051166;0,528
11;1;22;2;3;direct;crossed;1;7,5918663;0,528
11;1;23;2;4;mixed;crossed;0;12,7964088;0,528
11;1;24;2;3;direct;uncrossed;1;10,2039258;0,528
11;1;25;2;4;indirect;crossed;1;21,3571916;0,528
11;1;26;2;5;indirect;crossed;0;12,6450028;0,528
11;1;27;2;4;direct;crossed;1;9,9666116;0,528
11;1;28;2;5;direct;crossed;0;17,051972;0,528
11;1;29;2;3;indirect;uncrossed;1;9,8150398;0,528
11;1;30;2;3;indirect;crossed;0;10,4247231;0,528
11;1;31;2;3;mixed;crossed;0;17,5943419;0,528
11;1;32;2;5;indirect;uncrossed;0;16,661679;0,528
11;1;33;2;5;direct;uncrossed;1;6,13546;0,528
11;1;34;2;4;direct;uncrossed;1;7,9168776;0,528
11;1;35;2;4;mixed;uncrossed;1;15,6294192;0,528
11;1;36;2;3;mixed;uncrossed;1;11,5440511;0,528
11;1;37;3;5;direct;uncrossed;1;10,4919316;0,528
11;1;38;3;3;direct;uncrossed;1;17,7980646;0,528
11;1;39;3;4;direct;crossed;1;8,2724851;0,528
11;1;40;3;5;direct;crossed;0;14,0335722;0,528
11;1;41;3;3;direct;crossed;0;17,1534592;0,528
11;1;42;3;5;indirect;crossed;0;20,9660086;0,528
11;1;43;3;5;mixed;crossed;1;11,9836528;0,528
11;1;44;3;4;mixed;uncrossed;1;8,0006809;0,528
11;1;45;3;3;indirect;crossed;1;15,2200587;0,528
11;1;46;3;4;direct;uncrossed;1;16,7128713;0,528
11;1;47;3;4;indirect;uncrossed;1;16,0014817;0,528
11;1;48;3;3;mixed;crossed;1;16,8676561;0,528
11;1;49;3;3;mixed;uncrossed;1;8,7465753;0,528
11;1;50;3;4;indirect;crossed;1;19,9156726;0,528
11;1;51;3;5;mixed;uncrossed;1;15,8483166;0,528
11;1;52;3;4;mixed;crossed;0;22,3906525;0,528
11;1;53;3;5;indirect;uncrossed;1;20,5435902;0,528
11;1;54;3;3;indirect;uncrossed;1;10,5776271;0,528
11;2;1;1;3;indirect;crossed;0;15,5941041;0,528
11;2;2;1;4;mixed;uncrossed;0;10,4582795;0,528
11;2;3;1;5;direct;crossed;0;8,9835372;0,528
11;2;4;1;3;indirect;uncrossed;1;5,1546262;0,528
11;2;5;1;3;direct;crossed;1;10,1170361;0,528
11;2;6;1;3;direct;uncrossed;1;5,8144527;0,528
11;2;7;1;3;mixed;uncrossed;1;6,2379149;0,528
11;2;8;1;5;mixed;uncrossed;1;9,6278736;0,528
11;2;9;1;5;mixed;crossed;1;11,0686925;0,528
11;2;10;1;5;indirect;uncrossed;0;9,2888162;0,528
11;2;11;1;4;indirect;crossed;0;21,4074131;0,528
11;2;12;1;4;indirect;uncrossed;0;12,2891471;0,528
11;2;13;1;4;direct;crossed;0;15,3396331;0,528
11;2;14;1;4;mixed;crossed;1;18,0008711;0,528
11;2;15;1;3;mixed;crossed;0;17,7116498;0,528
11;2;16;1;4;direct;uncrossed;0;12,4918584;0,528
11;2;17;1;5;direct;uncrossed;1;16,1366294;0,528
11;2;18;2;4;indirect;crossed;0;10,679432;0,528
11;2;19;2;3;mixed;uncrossed;0;11,7124128;0,528
11;2;20;2;5;direct;crossed;0;16,4753654;0,528
11;2;21;2;3;mixed;crossed;0;13,661991;0,528
11;2;22;2;4;indirect;uncrossed;0;9,7297499;0,528
11;2;23;2;4;direct;crossed;0;7,7631483;0,528
11;2;24;2;5;direct;uncrossed;0;16,1871682;0,528
11;2;25;2;3;indirect;crossed;1;9,3247443;0,528
11;2;26;2;3;direct;crossed;1;10,5431375;0,528
11;2;27;2;3;indirect;uncrossed;1;6,1199991;0,528
11;2;28;2;5;mixed;uncrossed;0;9,6280545;0,528
11;2;29;2;4;mixed;crossed;1;16,6277434;0,528
11;2;30;2;4;direct;uncrossed;1;7,6785728;0,528
11;2;31;2;5;indirect;uncrossed;0;11,8482118;0,528
11;2;32;2;5;indirect;crossed;0;15,9333036;0,528
11;2;33;2;5;indirect;crossed;0;18,8824659;0,528
11;2;34;2;4;mixed;uncrossed;0;11,1538635;0,528
11;2;35;2;3;direct;uncrossed;1;7,3720363;0,528
11;2;36;2;5;mixed;crossed;0;10,5432933;0,528
11;2;37;3;4;mixed;crossed;0;17,0175042;0,528
11;2;38;3;4;direct;crossed;1;13,5090717;0,528
11;2;39;3;4;indirect;uncrossed;0;8,6451408;0,528
11;2;40;3;3;mixed;crossed;1;7,0015093;0,528
11;2;41;3;3;indirect;crossed;1;7,7787759;0,528
11;2;42;3;5;mixed;uncrossed;0;7,9492758;0,528
11;2;43;3;3;direct;uncrossed;1;8,6956437;0,528
11;2;44;3;4;direct;uncrossed;0;6,357179;0,528
11;2;45;3;4;indirect;crossed;0;14,9499451;0,528
11;2;46;3;3;mixed;uncrossed;1;7,0164439;0,528
11;2;47;3;3;direct;crossed;1;11,3399249;0,528
11;2;48;3;4;mixed;uncrossed;1;7,9833935;0,528
11;2;49;3;5;indirect;uncrossed;0;7,1700749;0,528
11;2;50;3;5;indirect;crossed;0;21,1729453;0,528
11;2;51;3;5;direct;uncrossed;0;8,0838753;0,528
11;2;52;3;3;indirect;uncrossed;1;5,0687021;0,528
11;2;53;3;5;direct;crossed;0;14,9670497;0,528
11;2;54;3;5;mixed;crossed;1;11,5258931;0,528
12;1;1;1;4;indirect;crossed;0;19,1519066;0,685
12;1;2;1;4;mixed;crossed;1;16,7295399;0,685
12;1;3;1;5;mixed;crossed;1;23,0006883;0,685
12;1;4;1;3;direct;uncrossed;1;11,5090831;0,685
12;1;5;1;5;direct;crossed;0;17,8486937;0,685
12;1;6;1;3;indirect;crossed;1;23,0185489;0,685
12;1;7;1;3;mixed;uncrossed;1;16,3233109;0,685
12;1;8;1;3;mixed;crossed;1;21,374787;0,685
12;1;9;1;4;direct;crossed;1;15,2723578;0,685
12;1;10;1;4;mixed;uncrossed;0;15,3740641;0,685
12;1;11;1;5;direct;uncrossed;1;14,2382151;0,685
12;1;12;1;5;indirect;uncrossed;0;15,6953099;0,685
12;1;13;1;5;mixed;uncrossed;1;14,8815418;0,685
12;1;14;1;3;indirect;uncrossed;1;5,0175249;0,685
12;1;15;1;4;direct;uncrossed;1;18,2233294;0,685
12;1;16;1;3;direct;crossed;1;20,1173207;0,685
12;1;17;1;4;indirect;uncrossed;1;13,8142142;0,685
12;1;18;2;3;indirect;crossed;0;14,0677255;0,685
12;1;19;2;5;direct;uncrossed;0;7,8475783;0,685
12;1;20;2;5;indirect;crossed;0;;0,685
12;1;21;2;4;indirect;uncrossed;0;7,899431;0,685
12;1;22;2;5;mixed;uncrossed;1;8,7803387;0,685
12;1;23;2;5;direct;crossed;0;17,4911436;0,685
12;1;24;2;3;mixed;uncrossed;1;17,5943688;0,685
12;1;25;2;4;indirect;crossed;0;9,6111855;0,685
12;1;26;2;5;indirect;crossed;0;22,9328495;0,685
12;1;27;2;4;direct;crossed;1;12,7633013;0,685
12;1;28;2;4;direct;uncrossed;1;9,2368318;0,685
12;1;29;2;3;mixed;crossed;1;15,0696472;0,685
12;1;30;2;5;indirect;uncrossed;0;13,0850724;0,685
12;1;31;2;3;indirect;uncrossed;0;8,2218368;0,685
12;1;32;2;5;mixed;crossed;1;19,0005718;0,685
12;1;33;2;4;mixed;uncrossed;1;23,933236;0,685
12;1;34;2;3;direct;uncrossed;1;9,7619754;0,685
12;1;35;2;3;direct;crossed;1;11,5434555;0,685
12;1;36;2;4;mixed;crossed;1;21,3397591;0,685
12;1;37;3;4;indirect;crossed;1;10,8314097;0,685
12;1;38;3;3;indirect;uncrossed;1;7,0179293;0,685
12;1;39;3;5;mixed;uncrossed;1;23,0009365;0,685
12;1;40;3;4;mixed;uncrossed;1;14,4411158;0,685
12;1;41;3;4;direct;uncrossed;1;12,3043037;0,685
12;1;42;3;3;mixed;uncrossed;0;7,6113215;0,685
12;1;43;3;5;indirect;crossed;0;19,9326497;0,685
12;1;44;3;4;mixed;crossed;0;13,0165775;0,685
12;1;45;3;5;indirect;uncrossed;1;17,6455858;0,685
12;1;46;3;4;direct;crossed;0;19,0855554;0,685
12;1;47;3;3;direct;uncrossed;1;14,4261021;0,685
12;1;48;3;5;mixed;crossed;1;10,9325554;0,685
12;1;49;3;3;direct;crossed;1;13,2380688;0,685
12;1;50;3;3;indirect;crossed;1;18,679667;0,685
12;1;51;3;3;mixed;crossed;1;23,2716644;0,685
12;1;52;3;5;direct;crossed;0;15,1024401;0,685
12;1;53;3;5;direct;uncrossed;1;17,3402937;0,685
12;1;54;3;4;indirect;uncrossed;1;12,644945;0,685
12;2;1;1;4;indirect;uncrossed;0;11,3231429;0,685
12;2;2;1;3;direct;crossed;1;16,7978898;0,685
12;2;3;1;4;direct;uncrossed;1;8,8130597;0,685
12;2;4;1;3;mixed;crossed;1;9,8819349;0,685
12;2;5;1;3;mixed;uncrossed;1;7,5781748;0,685
12;2;6;1;5;direct;uncrossed;1;18,3219873;0,685
12;2;7;1;4;mixed;uncrossed;1;10,1553067;0,685
12;2;8;1;3;indirect;crossed;1;16,1693827;0,685
12;2;9;1;4;mixed;crossed;0;16,1361875;0,685
12;2;10;1;4;indirect;crossed;1;22,2375914;0,685
12;2;11;1;5;direct;crossed;1;16,1369002;0,685
12;2;12;1;3;indirect;uncrossed;1;6,6467941;0,685
12;2;13;1;3;direct;uncrossed;1;16,9501619;0,685
12;2;14;1;5;mixed;crossed;0;10,9326408;0,685
12;2;15;1;4;direct;crossed;1;18,3398471;0,685
12;2;16;1;5;mixed;uncrossed;0;19,0175086;0,685
12;2;17;1;5;indirect;uncrossed;1;22,3400129;0,685
12;2;18;2;5;indirect;uncrossed;0;21,0856647;0,685
12;2;19;2;3;indirect;uncrossed;1;8,0186413;0,685
12;2;20;2;3;indirect;crossed;1;12,2214539;0,685
12;2;21;2;5;direct;crossed;0;11,2720101;0,685
12;2;22;2;4;direct;crossed;1;22,7810762;0,685
12;2;23;2;4;mixed;uncrossed;0;11,5616352;0,685
12;2;24;2;5;direct;uncrossed;1;14,9153093;0,685
12;2;25;2;3;direct;uncrossed;1;13,8154013;0,685
12;2;26;2;5;mixed;crossed;0;22,0534138;0,685
12;2;27;2;5;indirect;crossed;0;21,0700102;0,685
12;2;28;2;4;mixed;crossed;1;10,6772875;0,685
12;2;29;2;4;indirect;uncrossed;1;10,1366734;0,685
12;2;30;2;4;direct;uncrossed;0;11,4077608;0,685
12;2;31;2;4;indirect;crossed;1;15,0513968;0,685
12;2;32;2;5;mixed;uncrossed;1;11,1875881;0,685
12;2;33;2;3;direct;crossed;1;10,289127;0,685
12;2;34;2;3;mixed;crossed;1;9,3397993;0,685
12;2;35;2;5;indirect;crossed;0;15,5769427;0,685
12;2;36;2;3;mixed;uncrossed;0;12,8651733;0,685
12;2;37;3;3;direct;uncrossed;1;12,3565176;0,685
12;2;38;3;3;indirect;crossed;1;8,0520558;0,685
12;2;39;3;4;mixed;uncrossed;0;15,3223344;0,685
12;2;40;3;3;direct;crossed;1;14,4243174;0,685
12;2;41;3;4;indirect;uncrossed;1;8,0403295;0,685
12;2;42;3;4;mixed;crossed;1;23,0854732;0,685
12;2;43;3;5;indirect;uncrossed;1;19,7468253;0,685
12;2;44;3;3;indirect;uncrossed;1;8,3380767;0,685
12;2;45;3;5;mixed;uncrossed;1;12,9840062;0,685
12;2;46;3;5;direct;uncrossed;0;9,3401502;0,685
12;2;47;3;4;indirect;crossed;0;18,4420313;0,685
12;2;48;3;3;mixed;uncrossed;1;11,2718859;0,685
12;2;49;3;5;mixed;crossed;1;13,7130885;0,685
12;2;50;3;4;direct;crossed;1;17,5602731;0,685
12;2;51;3;4;direct;uncrossed;1;6,3226804;0,685
12;2;52;3;5;indirect;crossed;1;21,306846;0,685
12;2;53;3;5;direct;crossed;0;20,1188553;0,685
12;2;54;3;3;mixed;crossed;1;10,898844;0,685
13;1;1;1;4;mixed;uncrossed;1;15,3373367;0,333
13;1;2;1;5;direct;crossed;0;18,1869224;0,333
13;1;3;1;3;indirect;uncrossed;0;16,2901684;0,333
13;1;4;1;3;mixed;crossed;0;16,4245717;0,333
13;1;5;1;5;indirect;uncrossed;0;7,2045983;0,333
13;1;6;1;3;direct;crossed;1;19,3583862;0,333
13;1;7;1;5;direct;uncrossed;0;22,0338618;0,333
13;1;8;1;3;indirect;crossed;1;12,0689167;0,333
13;1;9;1;4;indirect;crossed;0;19,153651;0,333
13;1;10;1;4;direct;crossed;1;17,6279246;0,333
13;1;11;1;5;mixed;crossed;1;14,7803133;0,333
13;1;12;1;4;indirect;uncrossed;1;17,9501197;0,333
13;1;13;1;4;mixed;crossed;1;21,0518094;0,333
13;1;14;1;5;mixed;uncrossed;0;11,2404222;0,333
13;1;15;1;3;direct;uncrossed;1;10,3218478;0,333
13;1;16;1;3;mixed;uncrossed;0;12,5602261;0,333
13;1;17;1;4;direct;uncrossed;1;13,5261856;0,333
13;1;18;2;5;indirect;crossed;0;17,3393874;0,333
13;1;19;2;4;direct;uncrossed;0;7,7974113;0,333
13;1;20;2;5;mixed;crossed;0;15,4416745;0,333
13;1;21;2;4;indirect;crossed;0;12,8488028;0,333
13;1;22;2;4;direct;crossed;0;6,7970268;0,333
13;1;23;2;3;indirect;uncrossed;1;8,4091023;0,333
13;1;24;2;4;mixed;crossed;0;18,543782;0,333
13;1;25;2;5;mixed;uncrossed;0;17,2556476;0,333
13;1;26;2;5;indirect;uncrossed;1;21,2380977;0,333
13;1;27;2;3;mixed;uncrossed;1;8,1515029;0,333
13;1;28;2;3;indirect;crossed;0;12,5434045;0,333
13;1;29;2;3;mixed;crossed;1;8,6271883;0,333
13;1;30;2;4;indirect;uncrossed;0;23,1704533;0,333
13;1;31;2;4;mixed;uncrossed;0;19,4583703;0,333
13;1;32;2;5;indirect;crossed;0;17,3544658;0,333
13;1;33;2;3;direct;crossed;0;11,0526461;0,333
13;1;34;2;3;direct;uncrossed;0;14,6613929;0,333
13;1;35;2;5;direct;uncrossed;0;23,7804329;0,333
13;1;36;2;5;direct;crossed;0;12,1878043;0,333
13;1;37;3;4;mixed;crossed;0;5,2712991;0,333
13;1;38;3;3;indirect;crossed;1;15,2734816;0,333
13;1;39;3;5;indirect;crossed;0;9,4429859;0,333
13;1;40;3;4;direct;crossed;1;5,6616299;0,333
13;1;41;3;5;mixed;uncrossed;0;7,4582792;0,333
13;1;42;3;4;mixed;uncrossed;1;16,2717898;0,333
13;1;43;3;3;direct;uncrossed;0;10,5083763;0,333
13;1;44;3;3;indirect;uncrossed;1;14,4421684;0,333
13;1;45;3;3;mixed;uncrossed;1;6,9486172;0,333
13;1;46;3;3;mixed;crossed;1;8,7126189;0,333
13;1;47;3;3;direct;crossed;0;6,4070571;0,333
13;1;48;3;5;mixed;crossed;0;11,0520018;0,333
13;1;49;3;5;direct;crossed;0;15,2383732;0,333
13;1;50;3;4;indirect;uncrossed;1;6,7107235;0,333
13;1;51;3;4;direct;uncrossed;0;6,8138961;0,333
13;1;52;3;4;indirect;crossed;0;3,8483689;0,333
13;1;53;3;5;indirect;uncrossed;0;13,3743101;0,333
13;1;54;3;5;direct;uncrossed;1;5,2890626;0,333
13;2;1;1;4;mixed;crossed;0;8,7805231;0,333
13;2;2;1;4;indirect;crossed;0;11,5084321;0,333
13;2;3;1;3;mixed;crossed;0;19,1543846;0,333
13;2;4;1;3;direct;crossed;0;17,6094623;0,333
13;2;5;1;5;direct;crossed;0;15,0860266;0,333
13;2;6;1;5;mixed;crossed;0;11,0500953;0,333
13;2;7;1;5;indirect;uncrossed;0;15,6279213;0,333
13;2;8;1;3;indirect;crossed;0;9,3724584;0,333
13;2;9;1;3;mixed;uncrossed;1;6,3906413;0,333
13;2;10;1;5;direct;uncrossed;1;9,9840502;0,333
13;2;11;1;4;indirect;uncrossed;0;21,9316782;0,333
13;2;12;1;3;indirect;uncrossed;1;5,3914415;0,333
13;2;13;1;4;direct;uncrossed;0;7,1197693;0,333
13;2;14;1;5;mixed;uncrossed;0;11,2552709;0,333
13;2;15;1;4;direct;crossed;0;8,9668012;0,333
13;2;16;1;4;mixed;uncrossed;1;3,9334046;0,333
13;2;17;1;3;direct;uncrossed;1;3,2726443;0,333
13;2;18;2;4;mixed;uncrossed;0;13,8146594;0,333
13;2;19;2;5;indirect;crossed;0;5,8148771;0,333
13;2;20;2;5;direct;crossed;0;6,2053555;0,333
13;2;21;2;3;direct;uncrossed;1;4,8315594;0,333
13;2;22;2;4;direct;crossed;0;18,7807521;0,333
13;2;23;2;3;indirect;crossed;1;12,3744673;0,333
13;2;24;2;4;direct;uncrossed;1;7,1025309;0,333
13;2;25;2;5;direct;uncrossed;0;6,3741963;0,333
13;2;26;2;5;indirect;crossed;0;5,865338;0,333
13;2;27;2;4;indirect;uncrossed;0;9,8481339;0,333
13;2;28;2;3;direct;crossed;0;10,8507558;0,333
13;2;29;2;4;indirect;crossed;1;11,3719616;0,333
13;2;30;2;3;indirect;uncrossed;1;9,085227;0,333
13;2;31;2;3;mixed;crossed;0;5,6288001;0,333
13;2;32;2;3;mixed;uncrossed;0;8,6945046;0,333
13;2;33;2;5;indirect;uncrossed;0;8,9330281;0,333
13;2;34;2;5;mixed;uncrossed;0;3,5424981;0,333
13;2;35;2;4;mixed;crossed;0;6,2038613;0,333
13;2;36;2;5;mixed;crossed;0;6,8145574;0,333
13;2;37;3;5;direct;crossed;0;7,0855343;0,333
13;2;38;3;4;mixed;crossed;0;3,9499749;0,333
13;2;39;3;4;mixed;uncrossed;1;2,5768049;0,333
13;2;40;3;5;direct;uncrossed;1;4,2067009;0,333
13;2;41;3;4;indirect;crossed;0;6,5755846;0,333
13;2;42;3;5;mixed;crossed;0;4,1196843;0,333
13;2;43;3;4;indirect;uncrossed;0;2,4079756;0,333
13;2;44;3;3;indirect;uncrossed;0;3,1023513;0,333
13;2;45;3;3;direct;crossed;1;2,6786565;0,333
13;2;46;3;3;direct;uncrossed;1;5,9861701;0,333
13;2;47;3;4;direct;uncrossed;1;3,9819428;0,333
13;2;48;3;3;mixed;crossed;0;4,7806463;0,333
13;2;49;3;4;direct;crossed;0;4,3060361;0,333
13;2;50;3;3;indirect;crossed;0;2,0497351;0,333
13;2;51;3;5;mixed;uncrossed;0;3,4924611;0,333
13;2;52;3;5;indirect;crossed;0;5,2379792;0,333
13;2;53;3;3;mixed;uncrossed;0;3,1698116;0,333
13;2;54;3;5;indirect;uncrossed;0;2,0353017;0,333
14;1;1;1;4;mixed;crossed;1;20,4757047;0,806
14;1;2;1;3;indirect;uncrossed;1;17,2213701;0,806
14;1;3;1;4;mixed;uncrossed;1;13,0514312;0,806
14;1;4;1;3;direct;uncrossed;1;7,6454533;0,806
14;1;5;1;5;mixed;crossed;0;22,339851;0,806
14;1;6;1;4;indirect;crossed;1;21,3066472;0,806
14;1;7;1;4;direct;crossed;0;;0,806
14;1;8;1;3;mixed;crossed;1;21,0011982;0,806
14;1;9;1;5;indirect;uncrossed;0;21,068879;0,806
14;1;10;1;4;indirect;uncrossed;1;10,7130386;0,806
14;1;11;1;5;direct;uncrossed;1;10,5275769;0,806
14;1;12;1;3;indirect;crossed;1;13,9329907;0,806
14;1;13;1;3;direct;crossed;1;12,8482739;0,806
14;1;14;1;3;mixed;uncrossed;1;12,4574262;0,806
14;1;15;1;4;direct;uncrossed;1;11,9835041;0,806
14;1;16;1;5;direct;crossed;0;22,5267722;0,806
14;1;17;1;5;mixed;uncrossed;1;20,7978006;0,806
14;1;18;2;4;indirect;uncrossed;0;11,6955513;0,806
14;1;19;2;5;direct;crossed;1;22,4586443;0,806
14;1;20;2;5;indirect;crossed;0;21,8824786;0,806
14;1;21;2;3;indirect;uncrossed;1;9,6116908;0,806
14;1;22;2;3;indirect;crossed;1;7,7994818;0,806
14;1;23;2;3;direct;uncrossed;1;5,2196218;0,806
14;1;24;2;4;direct;uncrossed;1;12,3565679;0,806
14;1;25;2;4;mixed;crossed;1;18,7128869;0,806
14;1;26;2;3;mixed;crossed;0;23,3262681;0,806
14;1;27;2;5;indirect;crossed;0;23,8346612;0,806
14;1;28;2;4;direct;crossed;1;17,9668619;0,806
14;1;29;2;5;indirect;uncrossed;0;22,3230251;0,806
14;1;30;2;4;mixed;uncrossed;1;9,6263423;0,806
14;1;31;2;3;direct;crossed;1;11,9841539;0,806
14;1;32;2;5;direct;uncrossed;1;15,1535628;0,806
14;1;33;2;3;mixed;uncrossed;1;11,2720576;0,806
14;1;34;2;5;mixed;uncrossed;1;15,4398627;0,806
14;1;35;2;4;indirect;crossed;1;20,3697678;0,806
14;1;36;2;5;mixed;crossed;1;16,4054722;0,806
14;1;37;3;4;direct;crossed;0;21,5755518;0,806
14;1;38;3;5;direct;crossed;1;20,5252687;0,806
14;1;39;3;4;indirect;crossed;1;19,883097;0,806
14;1;40;3;4;mixed;uncrossed;1;14,4246567;0,806
14;1;41;3;4;mixed;crossed;1;13,797554;0,806
14;1;42;3;3;indirect;crossed;0;22,5946089;0,806
14;1;43;3;3;direct;crossed;1;16,0522186;0,806
14;1;44;3;5;indirect;uncrossed;0;23,5435969;0,806
14;1;45;3;5;mixed;crossed;0;23,2890564;0,806
14;1;46;3;3;mixed;crossed;0;18,6444026;0,806
14;1;47;3;3;mixed;uncrossed;1;11,4437112;0,806
14;1;48;3;3;indirect;uncrossed;0;14,1349826;0,806
14;1;49;3;5;direct;uncrossed;1;23,848753;0,806
14;1;50;3;5;mixed;uncrossed;1;12,1873263;0,806
14;1;51;3;3;direct;uncrossed;1;9,3568838;0,806
14;1;52;3;4;indirect;uncrossed;1;12,136531;0,806
14;1;53;3;4;direct;uncrossed;1;16,4244158;0,806
14;1;54;3;5;indirect;crossed;1;22,0523562;0,806
14;2;1;1;3;direct;uncrossed;1;5,206274;0,806
14;2;2;1;5;mixed;uncrossed;1;12,2191858;0,806
14;2;3;1;3;indirect;crossed;1;9,1026848;0,806
14;2;4;1;4;indirect;crossed;0;16,6113308;0,806
14;2;5;1;5;mixed;crossed;1;21,5090806;0,806
14;2;6;1;5;direct;crossed;1;15,8479011;0,806
14;2;7;1;4;mixed;crossed;1;22,7294575;0,806
14;2;8;1;3;indirect;uncrossed;1;8,4921233;0,806
14;2;9;1;4;direct;crossed;1;17,5259593;0,806
14;2;10;1;4;mixed;uncrossed;1;11,8314191;0,806
14;2;11;1;3;mixed;uncrossed;1;6,5264657;0,806
14;2;12;1;4;direct;uncrossed;1;18,3741804;0,806
14;2;13;1;4;indirect;uncrossed;1;14,0854697;0,806
14;2;14;1;3;direct;crossed;1;13,7974565;0,806
14;2;15;1;5;direct;uncrossed;1;16,2719251;0,806
14;2;16;1;3;mixed;crossed;0;19,3064752;0,806
14;2;17;1;5;indirect;uncrossed;0;23,2555813;0,806
14;2;18;2;5;direct;uncrossed;1;10,0683559;0,806
14;2;19;2;4;direct;uncrossed;1;6,034715;0,806
14;2;20;2;4;mixed;crossed;1;13,8483995;0,806
14;2;21;2;5;direct;crossed;1;15,5938598;0,806
14;2;22;2;5;indirect;uncrossed;0;20,4925233;0,806
14;2;23;2;4;direct;crossed;1;15,4923668;0,806
14;2;24;2;5;mixed;uncrossed;1;16,5260087;0,806
14;2;25;2;3;direct;uncrossed;1;6,4438426;0,806
14;2;26;2;4;indirect;uncrossed;1;9,439294;0,806
14;2;27;2;3;mixed;crossed;1;8,7971156;0,806
14;2;28;2;3;indirect;crossed;1;9,7809681;0,806
14;2;29;2;3;indirect;uncrossed;1;7,8122858;0,806
14;2;30;2;4;mixed;uncrossed;1;9,5925561;0,806
14;2;31;2;3;mixed;uncrossed;1;11,2050941;0,806
14;2;32;2;5;indirect;crossed;1;22,4579683;0,806
14;2;33;2;5;mixed;crossed;1;16,6795537;0,806
14;2;34;2;5;indirect;crossed;1;14,4411682;0,806
14;2;35;2;3;direct;crossed;1;7,2197191;0,806
14;2;36;2;4;indirect;crossed;0;12,8309336;0,806
14;2;37;3;5;direct;crossed;1;18,8823573;0,806
14;2;38;3;3;indirect;crossed;1;8,2390718;0,806
14;2;39;3;5;direct;uncrossed;0;19,272114;0,806
14;2;40;3;5;indirect;crossed;1;21,7631572;0,806
14;2;41;3;4;mixed;uncrossed;1;7,1361878;0,806
14;2;42;3;4;direct;uncrossed;1;11,5594758;0,806
14;2;43;3;3;direct;crossed;1;13,7289688;0,806
14;2;44;3;4;indirect;uncrossed;1;15,8315092;0,806
14;2;45;3;5;indirect;uncrossed;1;13,3737051;0,806
14;2;46;3;4;indirect;crossed;1;11,254725;0,806
14;2;47;3;3;mixed;uncrossed;1;8,0855297;0,806
14;2;48;3;5;mixed;uncrossed;1;21,1870474;0,806
14;2;49;3;3;indirect;uncrossed;1;7,6803683;0,806
14;2;50;3;5;mixed;crossed;1;13,2206662;0,806
14;2;51;3;3;mixed;crossed;1;8,798341;0,806
14;2;52;3;4;mixed;crossed;1;17,3061279;0,806
14;2;53;3;4;direct;crossed;1;12,559715;0,806
14;2;54;3;3;direct;uncrossed;1;5,2719988;0,806
15;1;1;1;5;mixed;uncrossed;0;;0,528
15;1;2;1;4;direct;crossed;0;22,5080206;0,528
15;1;3;1;3;mixed;crossed;0;20,9683892;0,528
15;1;4;1;3;indirect;crossed;0;21,4082139;0,528
15;1;5;1;5;direct;crossed;0;;0,528
15;1;6;1;3;indirect;uncrossed;0;12,3762295;0,528
15;1;7;1;3;direct;uncrossed;1;16,117669;0,528
15;1;8;1;4;mixed;uncrossed;0;;0,528
15;1;9;1;3;mixed;uncrossed;0;21,4590023;0,528
15;1;10;1;4;direct;uncrossed;0;;0,528
15;1;11;1;3;direct;crossed;1;22,5432321;0,528
15;1;12;1;4;indirect;uncrossed;1;13,8309804;0,528
15;1;13;1;5;indirect;uncrossed;0;;0,528
15;1;14;1;4;mixed;crossed;0;21,575882;0,528
15;1;15;1;4;indirect;crossed;0;14,7794448;0,528
15;1;16;1;5;mixed;crossed;0;18,5602375;0,528
15;1;17;1;5;direct;uncrossed;1;22,0351166;0,528
15;1;18;2;5;indirect;crossed;0;13,0195207;0,528
15;1;19;2;4;direct;crossed;1;16,4230022;0,528
15;1;20;2;4;indirect;uncrossed;1;19,0349123;0,528
15;1;21;2;4;mixed;crossed;0;21,9835553;0,528
15;1;22;2;5;indirect;uncrossed;0;23,2547154;0,528
15;1;23;2;3;mixed;uncrossed;0;19,5439342;0,528
15;1;24;2;5;mixed;crossed;0;21,1531743;0,528
15;1;25;2;4;direct;uncrossed;1;23,2863432;0,528
15;1;26;2;5;direct;crossed;1;22,8844961;0,528
15;1;27;2;3;indirect;uncrossed;1;8,3231317;0,528
15;1;28;2;4;mixed;uncrossed;1;11,764211;0,528
15;1;29;2;5;direct;uncrossed;1;13,4413453;0,528
15;1;30;2;4;indirect;crossed;1;18,9339301;0,528
15;1;31;2;3;direct;uncrossed;1;10,4566258;0,528
15;1;32;2;5;mixed;uncrossed;1;22,2211338;0,528
15;1;33;2;3;indirect;crossed;0;19,8138522;0,528
15;1;34;2;5;indirect;crossed;0;21,7127617;0,528
15;1;35;2;3;direct;crossed;1;11,695561;0,528
15;1;36;2;3;mixed;crossed;1;17,0352484;0,528
15;1;37;3;4;direct;uncrossed;1;11,0172683;0,528
15;1;38;3;3;mixed;crossed;1;19,5766062;0,528
15;1;39;3;3;mixed;uncrossed;1;22,3060923;0,528
15;1;40;3;3;indirect;uncrossed;1;9,0023634;0,528
15;1;41;3;4;mixed;uncrossed;0;15,2371703;0,528
15;1;42;3;5;indirect;crossed;0;21,7979636;0,528
15;1;43;3;4;direct;crossed;0;15,2572183;0,528
15;1;44;3;5;mixed;uncrossed;1;23,7794518;0,528
15;1;45;3;5;direct;uncrossed;0;23,5267098;0,528
15;1;46;3;3;direct;uncrossed;1;14,9491116;0,528
15;1;47;3;5;direct;crossed;0;22,6637517;0,528
15;1;48;3;4;mixed;crossed;0;14,8473036;0,528
15;1;49;3;4;indirect;crossed;0;20,4251988;0,528
15;1;50;3;5;mixed;crossed;1;20,6107654;0,528
15;1;51;3;4;indirect;uncrossed;0;;0,528
15;1;52;3;5;indirect;uncrossed;0;23,0349331;0,528
15;1;53;3;3;indirect;crossed;1;20,731174;0,528
15;1;54;3;3;direct;crossed;1;10,7292709;0,528
15;2;1;1;4;indirect;crossed;0;12,2725743;0,528
15;2;2;1;5;direct;crossed;0;20,7616746;0,528
15;2;3;1;4;indirect;uncrossed;0;13,5436336;0,528
15;2;4;1;4;mixed;uncrossed;0;22,9849615;0,528
15;2;5;1;3;mixed;uncrossed;1;20,6117498;0,528
15;2;6;1;3;indirect;crossed;1;20,0350786;0,528
15;2;7;1;5;mixed;uncrossed;0;17,8487105;0,528
15;2;8;1;4;direct;crossed;1;23,1197137;0,528
15;2;9;1;3;direct;crossed;1;18,6446706;0,528
15;2;10;1;3;direct;uncrossed;1;12,7807214;0,528
15;2;11;1;3;indirect;uncrossed;1;16,0859241;0,528
15;2;12;1;5;indirect;uncrossed;1;19,2723736;0,528
15;2;13;1;3;mixed;crossed;0;23,3241908;0,528
15;2;14;1;5;direct;uncrossed;1;17,035332;0,528
15;2;15;1;4;direct;uncrossed;1;23,0008191;0,528
15;2;16;1;5;mixed;crossed;0;22,0351039;0,528
15;2;17;1;4;mixed;crossed;0;22,4082957;0,528
15;2;18;2;4;mixed;crossed;0;18,5264033;0,528
15;2;19;2;3;mixed;uncrossed;1;11,5096759;0,528
15;2;20;2;4;mixed;uncrossed;1;23,0009843;0,528
15;2;21;2;4;indirect;uncrossed;1;22,545672;0,528
15;2;22;2;4;direct;crossed;0;23,2543027;0,528
15;2;23;2;5;mixed;uncrossed;0;22,8329575;0,528
15;2;24;2;4;indirect;crossed;0;22,3229884;0,528
15;2;25;2;5;direct;crossed;0;22,6136493;0,528
15;2;26;2;5;mixed;crossed;0;21,6949426;0,528
15;2;27;2;5;indirect;crossed;0;11,5940814;0,528
15;2;28;2;3;indirect;uncrossed;1;10,7135148;0,528
15;2;29;2;3;direct;crossed;1;8,1195113;0,528
15;2;30;2;5;indirect;uncrossed;1;21,0692919;0,528
15;2;31;2;3;mixed;crossed;1;11,6798406;0,528
15;2;32;2;3;direct;uncrossed;1;7,4056005;0,528
15;2;33;2;5;indirect;crossed;1;23,2372514;0,528
15;2;34;2;4;direct;uncrossed;1;18,5264918;0,528
15;2;35;2;5;direct;uncrossed;1;9,2014387;0,528
15;2;36;2;3;indirect;crossed;1;14,6834884;0,528
15;2;37;3;3;mixed;uncrossed;1;9,1876772;0,528
15;2;38;3;3;mixed;crossed;1;22,5945483;0,528
15;2;39;3;3;indirect;crossed;1;12,0185382;0,528
15;2;40;3;4;direct;uncrossed;1;18,8482224;0,528
15;2;41;3;3;direct;uncrossed;0;6,0681341;0,528
15;2;42;3;3;direct;crossed;1;9,6278518;0,528
15;2;43;3;3;indirect;uncrossed;1;9,7486168;0,528
15;2;44;3;5;direct;uncrossed;1;5,9667027;0,528
15;2;45;3;5;indirect;uncrossed;1;23,5264938;0,528
15;2;46;3;4;direct;crossed;0;21,5774637;0,528
15;2;47;3;5;mixed;crossed;0;16,357501;0,528
15;2;48;3;4;mixed;uncrossed;1;15,9382991;0,528
15;2;49;3;4;mixed;crossed;0;19,1023493;0,528
15;2;50;3;5;mixed;uncrossed;0;15,3072155;0,528
15;2;51;3;4;indirect;crossed;1;7,2230252;0,528
15;2;52;3;4;indirect;uncrossed;0;22,2874082;0,528
15;2;53;3;5;indirect;crossed;0;15,3926902;0,528
15;2;54;3;5;direct;crossed;1;12,2201551;0,528
16;1;1;1;5;indirect;uncrossed;1;15,2722405;0,37
16;1;2;1;3;direct;uncrossed;0;13,5945009;0,37
16;1;3;1;3;mixed;uncrossed;0;15,6796757;0,37
16;1;4;1;3;indirect;crossed;1;10,5781731;0,37
16;1;5;1;3;mixed;crossed;0;21,1080507;0,37
16;1;6;1;4;indirect;uncrossed;0;11,7989478;0,37
16;1;7;1;5;direct;uncrossed;0;4,9163876;0,37
16;1;8;1;4;direct;crossed;0;7,6447059;0,37
16;1;9;1;4;direct;uncrossed;1;11,94871;0,37
16;1;10;1;4;mixed;uncrossed;0;20,7298208;0,37
16;1;11;1;5;mixed;uncrossed;0;8,5608216;0,37
16;1;12;1;5;direct;crossed;0;8,42485;0,37
16;1;13;1;4;mixed;crossed;0;15,4402599;0,37
16;1;14;1;3;direct;crossed;0;10,0965756;0,37
16;1;15;1;5;mixed;crossed;0;10,0684378;0,37
16;1;16;1;4;indirect;crossed;0;11,0349096;0,37
16;1;17;1;3;indirect;uncrossed;1;3,6975696;0,37
16;1;18;2;3;mixed;crossed;0;8,7144638;0,37
16;1;19;2;5;mixed;uncrossed;0;7,5603754;0,37
16;1;20;2;4;direct;uncrossed;0;7,3378942;0,37
16;1;21;2;5;indirect;uncrossed;0;8,5428671;0,37
16;1;22;2;5;direct;crossed;0;2,967499;0,37
16;1;23;2;5;indirect;crossed;0;9,3388961;0,37
16;1;24;2;4;direct;crossed;0;13,3398358;0,37
16;1;25;2;4;mixed;uncrossed;0;7,2057028;0,37
16;1;26;2;3;direct;crossed;1;4,5648115;0,37
16;1;27;2;4;indirect;uncrossed;1;6,0174609;0,37
16;1;28;2;3;indirect;uncrossed;1;7,0354179;0,37
16;1;29;2;3;mixed;uncrossed;1;10,7124166;0,37
16;1;30;2;5;direct;uncrossed;0;6,0512845;0,37
16;1;31;2;5;mixed;crossed;0;11,032926;0,37
16;1;32;2;4;mixed;crossed;1;4,7469882;0,37
16;1;33;2;3;indirect;crossed;0;6,4589347;0,37
16;1;34;2;3;direct;uncrossed;0;10,3907438;0,37
16;1;35;2;4;indirect;crossed;0;10,6618855;0,37
16;1;36;2;5;indirect;crossed;0;13,6961562;0,37
16;1;37;3;4;mixed;crossed;0;4,6627312;0,37
16;1;38;3;3;indirect;crossed;0;6,2729682;0,37
16;1;39;3;5;direct;uncrossed;1;3,6958111;0,37
16;1;40;3;4;mixed;uncrossed;0;16,2888268;0,37
16;1;41;3;5;indirect;uncrossed;1;5,4081543;0,37
16;1;42;3;3;mixed;crossed;0;6,4247698;0,37
16;1;43;3;5;direct;crossed;0;10,1876605;0,37
16;1;44;3;4;direct;uncrossed;0;7,8651272;0,37
16;1;45;3;5;indirect;crossed;0;4,7972208;0,37
16;1;46;3;4;direct;crossed;0;3,6122825;0,37
16;1;47;3;3;mixed;uncrossed;0;9,9154015;0,37
16;1;48;3;4;indirect;crossed;1;3,5436118;0,37
16;1;49;3;3;direct;uncrossed;1;3,880202;0,37
16;1;50;3;5;mixed;uncrossed;0;6,5432651;0,37
16;1;51;3;4;indirect;uncrossed;0;4,1541605;0,37
16;1;52;3;5;mixed;crossed;0;4,7786948;0,37
16;1;53;3;3;direct;crossed;0;3,5092862;0,37
16;1;54;3;3;indirect;uncrossed;1;5,626278;0,37
16;2;1;1;4;direct;uncrossed;0;7,6809235;0,37
16;2;2;1;3;mixed;crossed;0;6,8296904;0,37
16;2;3;1;5;mixed;crossed;0;18,5437589;0,37
16;2;4;1;5;direct;crossed;0;10,9328572;0,37
16;2;5;1;5;mixed;uncrossed;0;7,1706788;0,37
16;2;6;1;4;mixed;uncrossed;0;9,0160339;0,37
16;2;7;1;3;indirect;uncrossed;1;6,1702413;0,37
16;2;8;1;3;direct;crossed;1;5,3226249;0,37
16;2;9;1;5;indirect;uncrossed;0;13,7461234;0,37
16;2;10;1;3;direct;uncrossed;1;10,2039408;0,37
16;2;11;1;4;direct;crossed;0;9,2726554;0,37
16;2;12;1;4;indirect;crossed;1;9,9500665;0,37
16;2;13;1;3;indirect;crossed;0;8,45864;0,37
16;2;14;1;4;indirect;uncrossed;0;4,8481549;0,37
16;2;15;1;5;direct;uncrossed;1;4,1018869;0,37
16;2;16;1;4;mixed;crossed;1;9,3061061;0,37
16;2;17;1;3;mixed;uncrossed;0;18,6104549;0,37
16;2;18;2;4;indirect;uncrossed;0;4,4070558;0,37
16;2;19;2;5;indirect;crossed;0;17,3226255;0,37
16;2;20;2;3;direct;uncrossed;1;5,6282662;0,37
16;2;21;2;4;indirect;crossed;1;5,9327036;0,37
16;2;22;2;4;direct;crossed;0;11,39092;0,37
16;2;23;2;5;direct;crossed;0;5,2377879;0,37
16;2;24;2;5;indirect;crossed;0;20,1364395;0,37
16;2;25;2;3;indirect;crossed;0;8,6449059;0,37
16;2;26;2;3;mixed;crossed;1;6,6451782;0,37
16;2;27;2;4;direct;uncrossed;1;9,0005414;0,37
16;2;28;2;3;mixed;uncrossed;1;9,3391212;0,37
16;2;29;2;3;direct;crossed;1;5,0515486;0,37
16;2;30;2;4;mixed;crossed;1;8,1871103;0,37
16;2;31;2;4;mixed;uncrossed;1;8,678244;0,37
16;2;32;2;5;mixed;uncrossed;1;11,2888423;0,37
16;2;33;2;5;direct;uncrossed;1;3,8321262;0,37
16;2;34;2;5;indirect;uncrossed;1;4,2547441;0,37
16;2;35;2;5;mixed;crossed;0;6,6442994;0,37
16;2;36;2;3;indirect;uncrossed;1;4,5776512;0,37
16;2;37;3;4;indirect;uncrossed;1;4,7488312;0,37
16;2;38;3;4;indirect;crossed;0;5,6429752;0,37
16;2;39;3;4;mixed;crossed;1;8,864895;0,37
16;2;40;3;4;direct;uncrossed;0;7,5937518;0,37
16;2;41;3;3;indirect;crossed;1;5,5946106;0,37
16;2;42;3;3;direct;uncrossed;0;8,9836413;0,37
16;2;43;3;5;direct;crossed;0;20,9835553;0,37
16;2;44;3;3;direct;crossed;1;6,0008358;0,37
16;2;45;3;5;direct;uncrossed;1;4,1192084;0,37
16;2;46;3;5;indirect;crossed;0;5,6769505;0,37
16;2;47;3;4;direct;crossed;0;6,6092022;0,37
16;2;48;3;4;mixed;uncrossed;0;6,1868464;0,37
16;2;49;3;3;mixed;uncrossed;1;18,8987109;0,37
16;2;50;3;5;mixed;uncrossed;0;5,9166608;0,37
16;2;51;3;5;mixed;crossed;1;13,2717148;0,37
16;2;52;3;3;indirect;uncrossed;0;7,7627323;0,37
16;2;53;3;5;indirect;uncrossed;0;7,8478387;0,37
16;2;54;3;3;mixed;crossed;1;8,3564453;0,37
17;1;1;1;3;indirect;crossed;0;7,1021547;0,713
17;1;2;1;3;mixed;crossed;0;11,4246675;0,713
17;1;3;1;3;direct;uncrossed;0;6,6275416;0,713
17;1;4;1;4;indirect;uncrossed;0;11,4243028;0,713
17;1;5;1;5;direct;uncrossed;1;7,6953297;0,713
17;1;6;1;4;mixed;uncrossed;1;13,407179;0,713
17;1;7;1;3;mixed;uncrossed;1;6,6274486;0,713
17;1;8;1;5;mixed;uncrossed;1;10,9666792;0,713
17;1;9;1;5;indirect;uncrossed;1;10,1362336;0,713
17;1;10;1;4;indirect;crossed;1;11,4752846;0,713
17;1;11;1;5;mixed;crossed;1;17,7143287;0,713
17;1;12;1;4;direct;uncrossed;1;6,1512956;0,713
17;1;13;1;3;direct;crossed;0;7,1531733;0,713
17;1;14;1;3;indirect;uncrossed;1;17,5940948;0,713
17;1;15;1;5;direct;crossed;0;6,22236;0,713
17;1;16;1;4;mixed;crossed;1;12,0672348;0,713
17;1;17;1;4;direct;crossed;1;11,983796;0,713
17;1;18;2;5;direct;crossed;0;21,051468;0,713
17;1;19;2;4;indirect;crossed;0;9,5094668;0,713
17;1;20;2;3;mixed;crossed;1;13,4922647;0,713
17;1;21;2;5;indirect;crossed;0;12,2383257;0,713
17;1;22;2;5;mixed;uncrossed;1;8,3904721;0,713
17;1;23;2;5;mixed;crossed;1;9,9665994;0,713
17;1;24;2;3;direct;crossed;1;11,7292848;0,713
17;1;25;2;4;mixed;crossed;1;9,5259328;0,713
17;1;26;2;3;indirect;crossed;1;10,289863;0,713
17;1;27;2;3;mixed;uncrossed;1;6,2040448;0,713
17;1;28;2;4;mixed;uncrossed;0;7,4241762;0,713
17;1;29;2;4;direct;crossed;0;8,7973507;0,713
17;1;30;2;5;indirect;uncrossed;1;6,7136065;0,713
17;1;31;2;4;direct;uncrossed;1;13,0335376;0,713
17;1;32;2;5;direct;uncrossed;1;5,3907396;0,713
17;1;33;2;3;direct;uncrossed;1;7,3903573;0,713
17;1;34;2;3;indirect;uncrossed;1;5,7123583;0,713
17;1;35;2;4;indirect;uncrossed;1;4,610853;0,713
17;1;36;2;5;indirect;crossed;0;20,9333338;0,713
17;1;37;3;4;indirect;uncrossed;0;6,9668014;0,713
17;1;38;3;5;indirect;crossed;0;20,7300215;0,713
17;1;39;3;4;mixed;crossed;0;5,1358577;0,713
17;1;40;3;3;indirect;crossed;0;6,8313045;0,713
17;1;41;3;5;direct;uncrossed;1;7,0524275;0,713
17;1;42;3;4;indirect;crossed;0;12,202674;0,713
17;1;43;3;5;direct;crossed;0;8,3567967;0,713
17;1;44;3;3;mixed;uncrossed;1;6,7123631;0,713
17;1;45;3;5;mixed;uncrossed;1;11,7972577;0,713
17;1;46;3;5;indirect;uncrossed;0;9,1535938;0,713
17;1;47;3;3;mixed;crossed;1;7,9836465;0,713
17;1;48;3;4;direct;uncrossed;1;8,0344493;0,713
17;1;49;3;4;direct;crossed;1;9,7461832;0,713
17;1;50;3;3;indirect;uncrossed;1;4,8817831;0,713
17;1;51;3;3;direct;crossed;0;6,8500123;0,713
17;1;52;3;4;mixed;uncrossed;1;9,4559578;0,713
17;1;53;3;3;direct;uncrossed;1;7,4901602;0,713
17;1;54;3;5;mixed;crossed;0;8,373611;0,713
17;2;1;1;4;indirect;crossed;0;3,0690295;0,713
17;2;2;1;4;mixed;crossed;0;9,610945;0,713
17;2;3;1;5;direct;uncrossed;1;16,6644014;0,713
17;2;4;1;3;direct;uncrossed;1;4,8323752;0,713
17;2;5;1;5;indirect;uncrossed;1;5,2720482;0,713
17;2;6;1;5;direct;crossed;1;11,6114043;0,713
17;2;7;1;5;mixed;crossed;1;10,3563194;0,713
17;2;8;1;3;mixed;crossed;1;12,2566583;0,713
17;2;9;1;4;direct;uncrossed;1;4,5606111;0,713
17;2;10;1;3;mixed;uncrossed;1;4,1703846;0,713
17;2;11;1;4;mixed;uncrossed;1;6,0177113;0,713
17;2;12;1;5;mixed;uncrossed;1;7,5578254;0,713
17;2;13;1;3;indirect;crossed;1;8,6463932;0,713
17;2;14;1;4;indirect;uncrossed;1;9,7632883;0,713
17;2;15;1;3;indirect;uncrossed;1;3,4566656;0,713
17;2;16;1;3;direct;crossed;1;6,8988909;0,713
17;2;17;1;4;direct;crossed;1;7,4761331;0,713
17;2;18;2;5;direct;uncrossed;1;6,6110044;0,713
17;2;19;2;3;indirect;crossed;1;7,0685997;0,713
17;2;20;2;4;mixed;uncrossed;1;8,6283231;0,713
17;2;21;2;3;mixed;uncrossed;1;7,6446793;0,713
17;2;22;2;5;direct;crossed;0;12,9662064;0,713
17;2;23;2;5;mixed;uncrossed;1;11,1534915;0,713
17;2;24;2;4;indirect;uncrossed;1;9,5614908;0,713
17;2;25;2;5;indirect;uncrossed;1;13,5615069;0,713
17;2;26;2;3;direct;uncrossed;1;4,5254705;0,713
17;2;27;2;5;mixed;crossed;0;7,1022753;0,713
17;2;28;2;5;indirect;crossed;0;15,0026629;0,713
17;2;29;2;4;indirect;crossed;1;12,4948543;0,713
17;2;30;2;4;direct;crossed;0;7,9158375;0,713
17;2;31;2;3;mixed;crossed;1;11,8492837;0,713
17;2;32;2;4;direct;uncrossed;1;8,9643453;0,713
17;2;33;2;3;direct;crossed;1;6,4414687;0,713
17;2;34;2;5;indirect;crossed;1;14,4414925;0,713
17;2;35;2;3;indirect;uncrossed;0;5,37387;0,713
17;2;36;2;4;mixed;crossed;1;22,5091736;0,713
17;2;37;3;4;mixed;crossed;0;10,1024401;0,713
17;2;38;3;4;mixed;uncrossed;1;6,0856894;0,713
17;2;39;3;3;indirect;crossed;1;10,204309;0,713
17;2;40;3;3;direct;crossed;1;4,8309743;0,713
17;2;41;3;4;direct;uncrossed;1;6,4074465;0,713
17;2;42;3;5;mixed;crossed;1;16,2717394;0,713
17;2;43;3;3;mixed;uncrossed;1;11,3398516;0,713
17;2;44;3;3;direct;uncrossed;1;3,8313264;0,713
17;2;45;3;3;mixed;crossed;1;7,3909449;0,713
17;2;46;3;4;indirect;crossed;1;9,3230566;0,713
17;2;47;3;5;indirect;crossed;1;15,8313127;0,713
17;2;48;3;5;direct;crossed;1;10,1010181;0,713
17;2;49;3;5;mixed;uncrossed;0;16,0014496;0,713
17;2;50;3;5;direct;uncrossed;1;10,3229075;0,713
17;2;51;3;5;indirect;uncrossed;1;8,4419678;0,713
17;2;52;3;4;indirect;uncrossed;1;4,3908455;0,713
17;2;53;3;4;direct;crossed;0;6,9159607;0,713
17;2;54;3;3;indirect;uncrossed;1;7,0531992;0,713
18;1;1;1;3;direct;uncrossed;1;7,8825235;0,88
18;1;2;1;5;direct;crossed;1;21,342347;0,88
18;1;3;1;3;mixed;crossed;1;14,1451849;0,88
18;1;4;1;4;mixed;uncrossed;0;;0,88
18;1;5;1;4;direct;uncrossed;1;17,4095943;0,88
18;1;6;1;3;direct;crossed;1;10,5699943;0,88
18;1;7;1;4;indirect;uncrossed;1;16,3229757;0,88
18;1;8;1;4;indirect;crossed;1;13,7293596;0,88
18;1;9;1;5;indirect;uncrossed;0;23,2823275;0,88
18;1;10;1;3;indirect;uncrossed;1;10,3927872;0,88
18;1;11;1;3;mixed;uncrossed;1;8,5262017;0,88
18;1;12;1;4;direct;crossed;1;21,8484818;0,88
18;1;13;1;5;mixed;crossed;1;10,3205094;0,88
18;1;14;1;5;mixed;uncrossed;1;7,7661047;0,88
18;1;15;1;3;indirect;crossed;1;8,255315;0,88
18;1;16;1;4;mixed;crossed;0;;0,88
18;1;17;1;5;direct;uncrossed;1;14,4243555;0,88
18;1;18;2;3;direct;crossed;1;12,6227748;0,88
18;1;19;2;5;mixed;uncrossed;1;14,7466068;0,88
18;1;20;2;3;indirect;crossed;1;7,6090714;0,88
18;1;21;2;5;indirect;crossed;0;23,3894915;0,88
18;1;22;2;3;mixed;uncrossed;1;6,900372;0,88
18;1;23;2;5;indirect;uncrossed;0;17,170479;0,88
18;1;24;2;3;direct;uncrossed;1;18,6277903;0,88
18;1;25;2;4;mixed;uncrossed;1;23,5538229;0,88
18;1;26;2;5;mixed;crossed;1;14,0682554;0,88
18;1;27;2;5;direct;uncrossed;1;9,8479045;0,88
18;1;28;2;4;direct;uncrossed;1;10,966856;0,88
18;1;29;2;4;indirect;uncrossed;1;8,5773231;0,88
18;1;30;2;5;direct;crossed;1;18,6788905;0,88
18;1;31;2;3;indirect;uncrossed;1;9,4094927;0,88
18;1;32;2;4;indirect;crossed;1;22,6107603;0,88
18;1;33;2;4;direct;crossed;1;17,3401764;0,88
18;1;34;2;3;mixed;crossed;1;9,4760642;0,88
18;1;35;2;5;indirect;crossed;1;22,2385117;0,88
18;1;36;2;4;mixed;crossed;1;19,5270099;0,88
18;1;37;3;3;indirect;uncrossed;1;13,6798011;0,88
18;1;38;3;4;direct;crossed;1;18,0863585;0,88
18;1;39;3;4;indirect;uncrossed;1;15,001246;0,88
18;1;40;3;5;indirect;uncrossed;1;20,3040637;0,88
18;1;41;3;3;mixed;uncrossed;1;14,7698139;0,88
18;1;42;3;5;mixed;uncrossed;1;17,9841964;0,88
18;1;43;3;3;mixed;crossed;1;21,7298067;0,88
18;1;44;3;5;mixed;crossed;1;12,6254913;0,88
18;1;45;3;3;indirect;crossed;1;11,5782933;0,88
18;1;46;3;3;direct;uncrossed;1;8,6125329;0,88
18;1;47;3;4;indirect;crossed;1;18,0360482;0,88
18;1;48;3;4;mixed;crossed;1;10,4375398;0,88
18;1;49;3;5;direct;crossed;1;21,289418;0,88
18;1;50;3;5;indirect;crossed;1;23,187763;0,88
18;1;51;3;5;direct;uncrossed;1;13,7957105;0,88
18;1;52;3;4;mixed;uncrossed;1;14,729826;0,88
18;1;53;3;4;direct;uncrossed;1;7,4411864;0,88
18;1;54;3;3;direct;crossed;1;10,1382064;0,88
18;2;1;1;3;indirect;crossed;0;4,1197075;0,88
18;2;2;1;4;indirect;crossed;1;16,7464047;0,88
18;2;3;1;4;direct;crossed;1;10,8479821;0,88
18;2;4;1;3;mixed;uncrossed;1;7,1031399;0,88
18;2;5;1;4;indirect;uncrossed;1;5,913886;0,88
18;2;6;1;3;direct;uncrossed;1;6,7153235;0,88
18;2;7;1;5;indirect;uncrossed;1;16,730599;0,88
18;2;8;1;5;mixed;uncrossed;1;13,4412909;0,88
18;2;9;1;5;mixed;crossed;0;;0,88
18;2;10;1;3;direct;crossed;1;9,1703213;0,88
18;2;11;1;4;direct;uncrossed;1;17,8992901;0,88
18;2;12;1;4;mixed;uncrossed;1;15,5940583;0,88
18;2;13;1;3;indirect;uncrossed;1;6,8466341;0,88
18;2;14;1;3;mixed;crossed;1;9,7814735;0,88
18;2;15;1;5;direct;uncrossed;1;9,5939573;0,88
18;2;16;1;4;mixed;crossed;1;16,0518122;0,88
18;2;17;1;5;direct;crossed;1;21,5440966;0,88
18;2;18;2;5;indirect;crossed;0;15,1874066;0,88
18;2;19;2;3;mixed;crossed;1;11,3404072;0,88
18;2;20;2;4;mixed;uncrossed;1;19,1371898;0,88
18;2;21;2;4;mixed;crossed;1;15,5097432;0,88
18;2;22;2;3;direct;uncrossed;1;6,5278281;0,88
18;2;23;2;5;mixed;uncrossed;1;13,2376431;0,88
18;2;24;2;5;mixed;crossed;1;16,2042574;0,88
18;2;25;2;3;mixed;uncrossed;1;9,1873841;0,88
18;2;26;2;5;direct;uncrossed;0;10,2879118;0,88
18;2;27;2;4;direct;uncrossed;1;10,0347218;0,88
18;2;28;2;4;indirect;crossed;1;10,0685954;0,88
18;2;29;2;5;indirect;crossed;1;22,1715089;0,88
18;2;30;2;4;indirect;uncrossed;1;6,4072088;0,88
18;2;31;2;3;indirect;crossed;1;14,3917085;0,88
18;2;32;2;3;indirect;uncrossed;1;4,271095;0,88
18;2;33;2;5;indirect;uncrossed;0;17,7484566;0,88
18;2;34;2;3;direct;crossed;1;6,8994168;0,88
18;2;35;2;4;direct;crossed;1;13,187302;0,88
18;2;36;2;5;direct;crossed;1;15,6612881;0,88
18;2;37;3;5;direct;crossed;1;15,459692;0,88
18;2;38;3;3;mixed;crossed;1;7,7640146;0,88
18;2;39;3;4;direct;crossed;1;7,3064274;0,88
18;2;40;3;4;mixed;uncrossed;1;7,9969507;0,88
18;2;41;3;5;indirect;crossed;1;19,4759537;0,88
18;2;42;3;5;mixed;crossed;1;10,6128235;0,88
18;2;43;3;5;indirect;uncrossed;1;8,576346;0,88
18;2;44;3;3;direct;crossed;0;4,5599012;0,88
18;2;45;3;3;direct;uncrossed;1;4,0042918;0,88
18;2;46;3;4;indirect;uncrossed;1;6,7807734;0,88
18;2;47;3;5;mixed;uncrossed;0;9,8654644;0,88
18;2;48;3;4;direct;uncrossed;1;6,6934648;0,88
18;2;49;3;3;indirect;crossed;1;5,950274;0,88
18;2;50;3;3;indirect;uncrossed;1;4,0864613;0,88
18;2;51;3;3;mixed;uncrossed;1;4,5598066;0,88
18;2;52;3;5;direct;uncrossed;0;5,7470301;0,88
18;2;53;3;4;indirect;crossed;1;16,339691;0,88
18;2;54;3;4;mixed;crossed;1;19,0180307;0,88
19;1;1;1;5;indirect;uncrossed;1;8,000797;0,648
19;1;2;1;4;indirect;uncrossed;1;13,7807697;0,648
19;1;3;1;3;indirect;crossed;1;11,2553127;0,648
19;1;4;1;5;direct;crossed;0;10,7975867;0,648
19;1;5;1;4;indirect;crossed;0;22,5091726;0,648
19;1;6;1;5;direct;uncrossed;1;10,0519402;0,648
19;1;7;1;3;indirect;uncrossed;1;5,7979498;0,648
19;1;8;1;4;mixed;crossed;1;9,7800834;0,648
19;1;9;1;3;mixed;crossed;0;8,492719;0,648
19;1;10;1;5;mixed;uncrossed;0;8,7123995;0,648
19;1;11;1;4;direct;uncrossed;1;14,3932189;0,648
19;1;12;1;5;mixed;crossed;0;21,3556172;0,648
19;1;13;1;3;mixed;uncrossed;1;14,9839934;0,648
19;1;14;1;3;direct;crossed;1;15,7134906;0,648
19;1;15;1;3;direct;uncrossed;1;14,1371797;0,648
19;1;16;1;4;direct;crossed;0;19,9367655;0,648
19;1;17;1;4;mixed;uncrossed;0;12,2554144;0,648
19;1;18;2;3;indirect;uncrossed;1;9,6799393;0,648
19;1;19;2;3;mixed;uncrossed;1;11,3739403;0,648
19;1;20;2;4;mixed;uncrossed;1;13,1699809;0,648
19;1;21;2;4;direct;crossed;1;16,7287628;0,648
19;1;22;2;5;mixed;uncrossed;0;20,7971579;0,648
19;1;23;2;3;indirect;crossed;1;16,5260846;0,648
19;1;24;2;4;mixed;crossed;1;18,637728;0,648
19;1;25;2;3;direct;uncrossed;1;13,0349163;0,648
19;1;26;2;5;direct;crossed;0;14,7466189;0,648
19;1;27;2;4;indirect;uncrossed;1;16,8339078;0,648
19;1;28;2;3;direct;crossed;1;14,7646165;0,648
19;1;29;2;5;mixed;crossed;0;21,1241391;0,648
19;1;30;2;4;indirect;crossed;1;22,2214423;0,648
19;1;31;2;5;indirect;crossed;0;19,1885904;0,648
19;1;32;2;5;direct;uncrossed;1;15,4578799;0,648
19;1;33;2;5;indirect;crossed;0;14,2892861;0,648
19;1;34;2;5;indirect;uncrossed;0;;0,648
19;1;35;2;4;direct;uncrossed;1;12,424726;0,648
19;1;36;2;3;mixed;crossed;1;12,2046381;0,648
19;1;37;3;3;mixed;uncrossed;1;12,6791622;0,648
19;1;38;3;4;mixed;crossed;0;22,7642711;0,648
19;1;39;3;5;indirect;crossed;0;11,390622;0,648
19;1;40;3;5;direct;crossed;0;19,5103753;0,648
19;1;41;3;4;indirect;crossed;1;12,7818486;0,648
19;1;42;3;5;mixed;uncrossed;0;21,4750972;0,648
19;1;43;3;4;indirect;uncrossed;1;12,0686219;0,648
19;1;44;3;3;direct;crossed;1;16,1364639;0,648
19;1;45;3;5;direct;uncrossed;1;10,9146999;0,648
19;1;46;3;5;indirect;uncrossed;0;11,0663019;0,648
19;1;47;3;4;direct;uncrossed;1;9,5260407;0,648
19;1;48;3;4;direct;crossed;1;13,4922882;0,648
19;1;49;3;3;indirect;crossed;0;21,8492986;0,648
19;1;50;3;4;mixed;uncrossed;0;18,9667921;0,648
19;1;51;3;5;mixed;crossed;0;22,8481723;0,648
19;1;52;3;3;mixed;crossed;0;14,6808171;0,648
19;1;53;3;3;direct;uncrossed;1;14,6954587;0,648
19;1;54;3;3;indirect;uncrossed;0;19,797571;0,648
19;2;1;1;4;indirect;crossed;1;16,984155;0,648
19;2;2;1;3;mixed;uncrossed;1;10,033614;0,648
19;2;3;1;5;direct;crossed;0;23,6951935;0,648
19;2;4;1;4;mixed;crossed;1;13,9843006;0,648
19;2;5;1;5;indirect;uncrossed;0;14,5262361;0,648
19;2;6;1;3;direct;uncrossed;1;13,6270989;0,648
19;2;7;1;3;mixed;crossed;1;14,0838215;0,648
19;2;8;1;4;direct;crossed;1;9,3912541;0,648
19;2;9;1;4;mixed;uncrossed;1;13,7043727;0,648
19;2;10;1;4;direct;uncrossed;1;19,6279145;0,648
19;2;11;1;3;indirect;crossed;1;14,900056;0,648
19;2;12;1;4;indirect;uncrossed;1;16,4413667;0,648
19;2;13;1;5;direct;uncrossed;1;15,0297077;0,648
19;2;14;1;3;direct;crossed;1;14,8992231;0,648
19;2;15;1;3;indirect;uncrossed;1;14,9674979;0,648
19;2;16;1;5;mixed;crossed;0;22,9990751;0,648
19;2;17;1;5;mixed;uncrossed;0;23,069101;0,648
19;2;18;2;3;mixed;crossed;1;14,3884062;0,648
19;2;19;2;4;direct;crossed;1;11,9668389;0,648
19;2;20;2;4;indirect;crossed;0;19,6291941;0,648
19;2;21;2;4;indirect;uncrossed;1;9,848192;0,648
19;2;22;2;5;direct;uncrossed;1;6,3058223;0,648
19;2;23;2;5;direct;crossed;0;22,1874358;0,648
19;2;24;2;3;mixed;uncrossed;1;13,4921272;0,648
19;2;25;2;3;direct;uncrossed;1;8,1533558;0,648
19;2;26;2;5;indirect;crossed;0;12,8656605;0,648
19;2;27;2;3;indirect;crossed;1;6,4263476;0,648
19;2;28;2;4;mixed;uncrossed;0;13,8642499;0,648
19;2;29;2;4;direct;uncrossed;1;13,8989717;0,648
19;2;30;2;5;indirect;crossed;0;;0,648
19;2;31;2;3;indirect;uncrossed;1;21,1723304;0,648
19;2;32;2;5;mixed;crossed;1;17,2207781;0,648
19;2;33;2;3;direct;crossed;1;6,6961835;0,648
19;2;34;2;5;indirect;uncrossed;0;14,2367784;0,648
19;2;35;2;5;mixed;uncrossed;1;10,271571;0,648
19;2;36;2;4;mixed;crossed;0;22,5967819;0,648
19;2;37;3;4;indirect;uncrossed;1;13,2536862;0,648
19;2;38;3;3;mixed;crossed;1;10,3570102;0,648
19;2;39;3;5;mixed;crossed;0;21,9670252;0,648
19;2;40;3;3;direct;uncrossed;1;8,984951;0,648
19;2;41;3;5;indirect;crossed;0;23,1873165;0,648
19;2;42;3;4;direct;uncrossed;1;12,7969771;0,648
19;2;43;3;3;mixed;uncrossed;1;7,1375563;0,648
19;2;44;3;4;direct;crossed;1;13,7634965;0,648
19;2;45;3;3;indirect;crossed;1;13,441817;0,648
19;2;46;3;4;indirect;crossed;1;11,8650915;0,648
19;2;47;3;5;mixed;uncrossed;1;12,3733629;0,648
19;2;48;3;5;direct;uncrossed;1;6,9318083;0,648
19;2;49;3;4;mixed;crossed;0;12,3571953;0,648
19;2;50;3;3;indirect;uncrossed;1;6,5249647;0,648
19;2;51;3;5;indirect;uncrossed;1;8,6110214;0,648
19;2;52;3;4;mixed;uncrossed;1;16,8293842;0,648
19;2;53;3;3;direct;crossed;1;15,405898;0,648
19;2;54;3;5;direct;crossed;0;21,7807414;0,648
20;1;1;1;3;indirect;uncrossed;0;11,9846907;0,5
20;1;2;1;4;direct;uncrossed;1;11,9039277;0,5
20;1;3;1;3;mixed;crossed;1;12,8661603;0,5
20;1;4;1;3;direct;uncrossed;1;11,5433027;0,5
20;1;5;1;4;indirect;crossed;1;9,9994205;0,5
20;1;6;1;5;indirect;uncrossed;0;16,4671715;0,5
20;1;7;1;3;mixed;uncrossed;1;7,6112342;0,5
20;1;8;1;4;indirect;uncrossed;1;7,219024;0,5
20;1;9;1;5;mixed;crossed;0;22,89959;0,5
20;1;10;1;5;direct;uncrossed;0;16,9630069;0,5
20;1;11;1;3;direct;crossed;0;21,4253923;0,5
20;1;12;1;4;direct;crossed;0;22,2556419;0,5
20;1;13;1;5;mixed;uncrossed;1;17,4987269;0,5
20;1;14;1;4;mixed;crossed;1;20,1874814;0,5
20;1;15;1;4;mixed;uncrossed;0;21,5779011;0,5
20;1;16;1;3;indirect;crossed;0;16,1536807;0,5
20;1;17;1;5;direct;crossed;0;20,5415269;0,5
20;1;18;2;4;direct;crossed;0;11,8482834;0,5
20;1;19;2;4;mixed;uncrossed;0;9,4746923;0,5
20;1;20;2;3;direct;crossed;1;17,6613735;0,5
20;1;21;2;5;mixed;crossed;0;22,7296097;0,5
20;1;22;2;3;mixed;crossed;1;22,0687163;0,5
20;1;23;2;3;indirect;uncrossed;0;23,5612817;0,5
20;1;24;2;3;direct;uncrossed;1;9,6450886;0,5
20;1;25;2;5;indirect;uncrossed;1;16,7805424;0,5
20;1;26;2;5;mixed;uncrossed;0;20,7132988;0,5
20;1;27;2;3;mixed;uncrossed;1;10,204376;0,5
20;1;28;2;4;mixed;crossed;1;17,8317736;0,5
20;1;29;2;5;indirect;crossed;0;;0,5
20;1;30;2;4;direct;uncrossed;0;21,2873869;0,5
20;1;31;2;5;direct;uncrossed;1;13,2203133;0,5
20;1;32;2;4;indirect;uncrossed;1;13,9145321;0,5
20;1;33;2;5;indirect;crossed;0;14,0346013;0,5
20;1;34;2;3;indirect;crossed;1;15,0191495;0,5
20;1;35;2;4;indirect;crossed;0;20,2209185;0,5
20;1;36;2;5;direct;crossed;0;18,8654205;0,5
20;1;37;3;5;indirect;crossed;0;21,1704556;0,5
20;1;38;3;3;indirect;uncrossed;1;21,6970148;0,5
20;1;39;3;4;direct;crossed;1;20,051832;0,5
20;1;40;3;4;mixed;uncrossed;1;12,9501982;0,5
20;1;41;3;4;indirect;crossed;0;11,2027583;0,5
20;1;42;3;3;mixed;crossed;1;11,8345607;0,5
20;1;43;3;5;direct;crossed;1;14,7288368;0,5
20;1;44;3;3;direct;crossed;0;15,4422545;0,5
20;1;45;3;5;indirect;uncrossed;0;12,8994951;0,5
20;1;46;3;3;indirect;crossed;0;17,7140111;0,5
20;1;47;3;3;direct;uncrossed;1;11,5941132;0,5
20;1;48;3;4;direct;uncrossed;1;15,7956317;0,5
20;1;49;3;5;mixed;uncrossed;0;16,1026194;0,5
20;1;50;3;5;mixed;crossed;0;11,340055;0,5
20;1;51;3;3;mixed;uncrossed;1;12,2212052;0,5
20;1;52;3;5;direct;uncrossed;1;12,7134617;0,5
20;1;53;3;4;mixed;crossed;0;13,5090199;0,5
20;1;54;3;4;indirect;uncrossed;1;9,8483681;0,5
20;2;1;1;4;mixed;uncrossed;1;12,3756152;0,5
20;2;2;1;5;indirect;uncrossed;0;14,7812928;0,5
20;2;3;1;5;mixed;crossed;0;16,1179717;0,5
20;2;4;1;4;indirect;crossed;1;13,577234;0,5
20;2;5;1;5;direct;uncrossed;0;20,4422571;0,5
20;2;6;1;3;indirect;crossed;0;9,526734;0,5
20;2;7;1;5;mixed;uncrossed;1;10,3741245;0,5
20;2;8;1;5;direct;crossed;0;16,6798899;0,5
20;2;9;1;4;indirect;uncrossed;1;11,6450716;0,5
20;2;10;1;4;mixed;crossed;0;17,7302011;0,5
20;2;11;1;4;direct;crossed;0;10,83163;0,5
20;2;12;1;3;direct;uncrossed;1;12,9506298;0,5
20;2;13;1;3;indirect;uncrossed;0;13,4590991;0,5
20;2;14;1;4;direct;uncrossed;1;10,3906682;0,5
20;2;15;1;3;mixed;crossed;0;15,3063787;0,5
20;2;16;1;3;mixed;uncrossed;1;11,5264569;0,5
20;2;17;1;3;direct;crossed;1;19,2894709;0,5
20;2;18;2;4;direct;uncrossed;1;9,0855654;0,5
20;2;19;2;3;direct;uncrossed;1;11,3716941;0,5
20;2;20;2;3;mixed;uncrossed;1;9,4916811;0,5
20;2;21;2;4;direct;crossed;1;10,2720032;0,5
20;2;22;2;5;direct;uncrossed;1;8,5599228;0,5
20;2;23;2;3;indirect;crossed;0;13,4574699;0,5
20;2;24;2;4;mixed;uncrossed;1;13,8653072;0,5
20;2;25;2;5;mixed;uncrossed;0;16,594356;0,5
20;2;26;2;5;direct;crossed;0;14,3228939;0,5
20;2;27;2;4;indirect;uncrossed;0;13,3572148;0,5
20;2;28;2;5;indirect;crossed;0;19,4422427;0,5
20;2;29;2;3;indirect;uncrossed;1;11,2728374;0,5
20;2;30;2;4;indirect;crossed;0;9,7297826;0,5
20;2;31;2;5;indirect;uncrossed;1;12,3908761;0,5
20;2;32;2;3;direct;crossed;1;15,9669722;0,5
20;2;33;2;5;mixed;crossed;0;9,9857269;0,5
20;2;34;2;3;mixed;crossed;0;9,4768192;0,5
20;2;35;2;5;indirect;crossed;0;15,3037097;0,5
20;2;36;2;4;mixed;crossed;1;11,1047464;0,5
20;2;37;3;3;direct;uncrossed;1;12,2191257;0,5
20;2;38;3;4;direct;uncrossed;0;11,6623651;0,5
20;2;39;3;4;indirect;uncrossed;1;8,1513022;0,5
20;2;40;3;5;direct;crossed;0;5,356574;0,5
20;2;41;3;5;direct;uncrossed;1;8,525911;0,5
20;2;42;3;4;mixed;crossed;0;10,0005568;0,5
20;2;43;3;5;indirect;crossed;0;5,0352292;0,5
20;2;44;3;3;direct;crossed;1;14,6115264;0,5
20;2;45;3;5;mixed;crossed;0;20,6798492;0,5
20;2;46;3;3;indirect;uncrossed;1;8,476748;0,5
20;2;47;3;5;indirect;uncrossed;1;13,8648929;0,5
20;2;48;3;4;direct;crossed;0;10,9498874;0,5
20;2;49;3;4;indirect;crossed;0;6,0852703;0,5
20;2;50;3;5;mixed;uncrossed;0;9,4244972;0,5
20;2;51;3;3;mixed;crossed;0;16,413827;0,5
20;2;52;3;3;indirect;crossed;1;12,595152;0,5
20;2;53;3;4;mixed;uncrossed;1;10,4246717;0,5
20;2;54;3;3;mixed;uncrossed;1;7,6969699;0,5
21;1;1;1;4;mixed;crossed;0;22,0350041;0,398
21;1;2;1;4;mixed;uncrossed;1;14,6276997;0,398
21;1;3;1;3;indirect;crossed;0;22,2386053;0,398
21;1;4;1;5;indirect;uncrossed;1;16,8311633;0,398
21;1;5;1;5;mixed;crossed;0;23,3909043;0,398
21;1;6;1;5;direct;crossed;0;21,7131458;0,398
21;1;7;1;4;direct;crossed;0;21,6787181;0,398
21;1;8;1;3;mixed;crossed;1;8,2391068;0,398
21;1;9;1;3;indirect;uncrossed;1;13,3907064;0,398
21;1;10;1;5;mixed;uncrossed;0;19,6788438;0,398
21;1;11;1;4;direct;uncrossed;0;19,6790856;0,398
21;1;12;1;5;direct;uncrossed;1;12,2356393;0,398
21;1;13;1;4;indirect;uncrossed;1;12,1881264;0,398
21;1;14;1;3;direct;uncrossed;1;23,4074169;0,398
21;1;15;1;3;mixed;uncrossed;0;11,8821666;0,398
21;1;16;1;3;direct;crossed;0;17,1705551;0,398
21;1;17;1;4;indirect;crossed;0;20,3910589;0,398
21;1;18;2;3;mixed;crossed;0;22,1172228;0,398
21;1;19;2;3;indirect;uncrossed;1;8,5612304;0,398
21;1;20;2;5;mixed;crossed;0;21,9314229;0,398
21;1;21;2;4;direct;crossed;0;20,7636981;0,398
21;1;22;2;4;mixed;uncrossed;1;13,5600976;0,398
21;1;23;2;5;indirect;uncrossed;0;16,1199219;0,398
21;1;24;2;5;direct;crossed;0;16,7804939;0,398
21;1;25;2;5;indirect;crossed;0;21,2200279;0,398
21;1;26;2;3;mixed;uncrossed;1;13,5776211;0,398
21;1;27;2;3;direct;uncrossed;1;14,6956967;0,398
21;1;28;2;5;direct;uncrossed;0;8,8824254;0,398
21;1;29;2;3;direct;crossed;1;16,8502442;0,398
21;1;30;2;4;mixed;crossed;1;22,1354019;0,398
21;1;31;2;5;indirect;crossed;0;15,2046865;0,398
21;1;32;2;3;indirect;crossed;0;20,9169933;0,398
21;1;33;2;4;direct;uncrossed;0;22,4418241;0,398
21;1;34;2;5;mixed;uncrossed;0;23,1877037;0,398
